Accelerometer X,Accelerometer Y,Accelerometer Z
0.043,1.02,0.02
0.035,1.004,0.0
0.035,0.988,0.016
0.031,0.992,0.008
0.02,0.992,-0.016
0.012,0.988,-0.016
0.008,0.988,-0.02
-0.008,0.988,-0.012
-0.023,0.996,-0.016
-0.012,0.992,-0.004
-0.004,0.992,0.004
0.008,0.988,-0.004
0.012,0.992,-0.004
-0.004,0.996,-0.004
0.004,0.992,0.012
0.023,1.0,0.0
0.023,0.992,0.004
0.031,0.992,0.02
0.043,0.996,0.016
0.047,0.992,0.004
0.043,0.988,0.016
0.035,0.996,0.004
0.047,0.992,0.02
0.023,0.988,0.043
0.004,0.992,0.031
-0.031,0.996,0.066
-0.039,0.945,0.102
-0.027,0.977,0.047
-0.023,1.012,0.039
-0.102,1.051,0.043
-0.18,1.031,0.078
-0.082,1.023,0.129
0.098,0.957,0.164
0.355,0.973,0.176
0.402,1.0,0.117
0.266,1.016,0.102
0.211,0.953,0.035
0.227,0.902,0.016
0.18,0.961,-0.004
0.102,1.063,-0.02
0.125,0.988,-0.012
0.125,0.949,0.0
0.141,0.977,0.0
0.156,1.0,-0.016
0.121,0.984,0.012
0.113,0.98,0.0
0.086,0.988,0.008
0.078,0.984,0.023
0.078,0.977,0.012
0.086,1.0,0.047
0.082,0.984,0.02
0.082,0.965,0.043
0.082,0.992,0.043
0.102,0.992,0.043
0.105,0.969,0.043
0.105,0.984,0.035
0.105,0.98,0.043
0.109,0.992,0.039
0.105,0.969,0.031
0.094,0.984,0.043
0.086,1.004,0.039
0.086,0.992,0.035
0.102,0.984,0.047
0.094,0.992,0.039
0.098,0.984,0.043
0.109,0.98,0.047
0.102,0.977,0.035
0.109,0.984,0.047
0.113,0.98,0.027
0.129,0.984,0.035
0.141,0.988,0.043
0.141,0.992,0.039
0.133,0.988,0.023
0.145,0.98,0.008
0.18,0.969,0.027
0.191,0.988,0.047
0.152,0.992,0.031
0.141,0.98,0.047
0.113,0.992,0.039
0.082,0.992,0.031
0.07,0.973,0.027
0.086,0.98,0.027
0.066,0.984,0.016
0.09,0.973,0.035
0.105,0.996,0.039
0.102,1.004,0.047
0.082,1.012,0.059
0.086,1.0,0.066
0.055,0.996,0.043
0.016,0.992,0.035
0.008,0.996,0.039
0.051,0.984,0.02
0.102,0.992,0.031
0.109,0.988,-0.004
0.055,1.027,-0.008
0.063,0.965,-0.031
0.066,0.965,-0.027
0.063,0.988,-0.031
0.047,1.008,-0.047
0.055,0.984,-0.051
0.066,0.988,-0.039
0.07,0.977,-0.043
0.063,1.0,-0.039
0.063,0.984,-0.047
0.063,0.988,-0.043
0.066,0.988,-0.055
0.055,1.008,-0.039
0.066,0.988,-0.055
0.066,0.992,-0.047
0.07,0.984,-0.051
0.066,0.984,-0.051
0.063,0.98,-0.074
0.07,0.984,-0.051
0.074,0.992,-0.051
0.07,1.008,-0.027
0.059,0.973,-0.055
0.055,0.992,-0.039
0.063,0.996,-0.043
0.078,0.992,-0.027
0.086,0.98,-0.035
0.09,1.004,-0.027
0.094,0.996,-0.031
0.086,0.988,-0.035
0.082,1.0,-0.055
0.09,0.992,-0.035
0.098,1.0,-0.027
0.121,0.996,-0.023
0.121,0.969,-0.023
0.145,0.984,-0.012
0.137,1.004,-0.02
0.137,0.973,-0.023
0.129,0.992,-0.02
0.148,1.004,-0.051
0.172,0.965,-0.059
0.172,0.965,-0.066
0.145,0.988,-0.051
0.109,0.984,-0.051
0.109,0.996,-0.063
0.07,0.988,-0.074
0.012,0.961,-0.133
0.023,0.977,-0.145
0.027,0.984,-0.152
0.055,0.961,-0.125
0.09,1.008,-0.098
0.102,1.0,-0.098
0.063,0.961,-0.133
0.039,0.977,-0.125
0.027,0.98,-0.117
0.004,0.961,-0.137
0.0,0.98,-0.133
-0.023,0.973,-0.121
-0.008,0.992,-0.078
0.008,0.98,-0.098
0.016,1.02,-0.098
-0.027,1.02,-0.102
-0.082,0.973,-0.137
-0.027,1.004,-0.141
-0.023,1.012,-0.164
-0.066,0.977,-0.152
-0.039,0.984,-0.145
-0.02,1.043,-0.16
-0.031,0.984,-0.137
-0.016,0.957,-0.141
0.121,0.918,-0.078
0.035,1.008,-0.102
-0.051,1.0,-0.156
-0.086,0.988,-0.133
-0.051,1.105,-0.164
0.023,0.996,-0.125
0.039,0.988,-0.098
0.012,0.984,-0.152
0.031,0.91,-0.074
-0.023,0.957,-0.152
-0.008,1.027,-0.102
0.012,0.965,-0.09
0.02,0.973,-0.086
0.016,0.906,-0.078
-0.02,1.031,-0.074
-0.066,1.039,-0.055
-0.066,1.004,-0.09
-0.027,1.016,-0.105
-0.039,1.0,-0.094
-0.016,0.977,-0.102
-0.012,0.992,-0.09
-0.012,1.0,-0.082
0.0,0.973,-0.094
-0.027,0.992,-0.113
-0.031,0.996,-0.113
-0.027,0.988,-0.102
-0.004,0.98,-0.102
0.004,0.969,-0.098
-0.016,0.992,-0.094
-0.031,0.996,-0.09
-0.02,0.992,-0.098
-0.012,0.98,-0.121
-0.012,1.008,-0.105
-0.039,0.992,-0.102
-0.023,0.996,-0.086
-0.027,0.988,-0.09
-0.023,0.965,-0.09
0.0,0.98,-0.094
-0.027,0.996,-0.105
-0.051,1.023,-0.113
-0.063,1.0,-0.102
-0.023,0.988,-0.09
0.023,0.973,-0.086
-0.004,0.984,-0.09
-0.055,1.016,-0.113
-0.063,0.992,-0.117
-0.02,1.008,-0.117
-0.02,0.984,-0.121
-0.035,0.98,-0.094
0.012,1.0,-0.098
-0.016,0.973,-0.102
-0.008,0.977,-0.105
-0.012,0.992,-0.105
-0.039,0.988,-0.102
-0.043,0.996,-0.109
-0.02,1.0,-0.094
-0.035,0.988,-0.109
-0.039,0.984,-0.109
-0.035,0.992,-0.102
-0.02,0.996,-0.102
-0.023,0.984,-0.113
-0.027,0.996,-0.105
-0.035,1.0,-0.113
-0.023,0.996,-0.109
-0.02,0.988,-0.117
-0.016,0.984,-0.113
-0.016,0.984,-0.117
-0.02,0.98,-0.113
-0.02,0.984,-0.109
-0.016,0.984,-0.105
-0.027,0.984,-0.117
-0.043,0.996,-0.113
-0.035,0.992,-0.117
-0.02,0.988,-0.109
-0.035,0.984,-0.109
-0.023,0.988,-0.105
-0.039,0.992,-0.113
-0.035,1.0,-0.113
-0.031,0.992,-0.113
-0.023,0.992,-0.113
-0.016,0.984,-0.113
-0.02,0.992,-0.113
-0.02,0.992,-0.113
-0.016,0.984,-0.113
-0.027,0.98,-0.113
-0.02,0.992,-0.113
-0.027,0.984,-0.117
-0.031,0.988,-0.117
-0.043,0.992,-0.117
-0.027,0.98,-0.113
-0.023,0.992,-0.113
-0.027,0.977,-0.117
-0.035,0.996,-0.109
-0.047,0.996,-0.113
-0.047,0.992,-0.105
-0.035,0.992,-0.109
-0.023,0.984,-0.113
-0.023,0.992,-0.117
-0.008,0.984,-0.113
-0.012,0.984,-0.098
-0.023,0.992,-0.086
-0.043,0.992,-0.09
-0.027,0.992,-0.07
-0.016,1.004,-0.094
-0.031,0.988,-0.086
-0.047,0.996,-0.086
-0.043,0.996,-0.078
-0.027,1.0,-0.078
-0.027,0.984,-0.078
-0.047,0.996,-0.09
-0.031,0.988,-0.086
-0.012,0.988,-0.082
0.004,0.98,-0.063
-0.02,0.98,-0.07
-0.047,1.023,-0.027
-0.055,1.027,-0.039
-0.066,1.0,-0.051
-0.039,0.992,-0.051
-0.02,0.988,-0.031
-0.012,0.984,-0.031
-0.027,0.961,-0.047
-0.039,0.984,-0.055
-0.047,0.977,-0.055
-0.031,0.969,-0.082
-0.023,1.047,-0.055
-0.035,1.016,-0.031
-0.012,1.02,-0.059
-0.047,0.98,-0.07
-0.027,1.012,-0.055
0.02,1.0,-0.055
-0.008,0.977,-0.078
-0.043,0.988,-0.059
-0.031,1.008,-0.059
-0.02,0.996,-0.055
-0.031,0.988,-0.074
-0.043,0.992,-0.063
-0.043,1.004,-0.066
-0.031,1.004,-0.059
-0.035,0.984,-0.066
-0.027,1.016,-0.07
-0.012,0.992,-0.078
-0.039,0.996,-0.09
-0.02,0.992,-0.078
0.016,0.992,-0.066
0.012,0.973,-0.074
-0.012,0.984,-0.07
-0.008,1.004,-0.074
-0.012,0.996,-0.082
-0.027,0.992,-0.086
-0.016,0.988,-0.082
-0.012,0.992,-0.078
-0.023,0.98,-0.086
-0.027,0.988,-0.086
-0.012,0.996,-0.082
-0.023,0.984,-0.094
-0.031,0.984,-0.09
-0.039,1.004,-0.094
-0.027,1.0,-0.09
0.004,0.996,-0.086
0.0,0.973,-0.086
-0.023,0.984,-0.086
-0.031,0.984,-0.082
-0.016,0.992,-0.078
-0.031,0.996,-0.086
-0.035,0.996,-0.082
-0.023,1.0,-0.086
-0.016,0.992,-0.082
-0.016,1.004,-0.082
-0.02,0.996,-0.074
-0.02,0.984,-0.082
-0.016,0.992,-0.086
-0.039,0.98,-0.09
-0.039,0.996,-0.082
-0.027,0.988,-0.078
-0.039,0.992,-0.082
-0.035,0.992,-0.09
-0.035,0.992,-0.078
-0.031,0.992,-0.082
-0.027,0.984,-0.086
-0.031,0.996,-0.078
-0.039,0.992,-0.082
-0.035,0.992,-0.082
-0.035,1.0,-0.082
-0.027,0.996,-0.09
-0.023,0.988,-0.078
-0.035,1.0,-0.082
-0.016,0.996,-0.078
-0.012,0.988,-0.082
-0.02,0.977,-0.086
-0.008,1.004,-0.094
-0.012,0.977,-0.082
-0.004,1.004,-0.082
-0.008,0.98,-0.082
-0.02,0.988,-0.094
-0.02,0.984,-0.098
0.004,0.996,-0.109
0.016,0.973,-0.113
0.008,0.992,-0.113
-0.02,0.98,-0.102
-0.031,1.0,-0.102
-0.031,0.988,-0.094
-0.035,0.996,-0.078
-0.039,0.988,-0.07
-0.035,0.992,-0.066
-0.02,0.984,-0.07
-0.023,0.988,-0.059
-0.02,1.0,-0.07
-0.012,1.012,-0.082
-0.027,0.996,-0.105
-0.023,0.992,-0.105
-0.008,0.988,-0.086
-0.004,0.988,-0.086
-0.016,0.992,-0.082
-0.031,1.0,-0.086
-0.02,0.996,-0.09
-0.02,0.977,-0.094
-0.027,0.992,-0.09
0.004,1.0,-0.051
-0.012,0.988,-0.102
-0.016,0.965,-0.105
-0.02,1.02,-0.082
-0.031,0.988,-0.082
-0.043,0.996,-0.09
-0.047,0.988,-0.094
-0.047,0.977,-0.098
-0.043,1.0,-0.09
-0.035,1.0,-0.086
-0.047,0.996,-0.082
-0.039,0.988,-0.082
-0.043,0.965,-0.078
-0.023,1.008,-0.074
-0.016,1.012,-0.078
-0.016,1.02,-0.07
-0.02,1.004,-0.082
-0.012,0.977,-0.078
-0.012,0.992,-0.059
-0.027,0.98,-0.047
-0.043,0.988,-0.055
-0.047,0.969,-0.063
-0.027,1.008,-0.055
-0.02,1.008,-0.059
-0.004,0.977,-0.047
0.008,0.977,-0.051
-0.023,0.98,-0.063
-0.047,0.996,-0.047
-0.059,1.023,-0.039
-0.074,1.008,-0.051
-0.039,0.996,-0.031
-0.047,0.996,-0.027
-0.063,0.961,-0.02
-0.023,0.992,0.023
0.023,1.023,0.078
0.027,1.047,0.09
0.016,1.004,0.09
0.047,0.957,0.086
0.078,0.926,0.094
0.082,0.98,0.082
0.055,1.012,0.066
0.031,0.996,0.09
0.043,1.012,0.121
0.035,1.016,0.137
0.027,0.996,0.121
0.023,0.961,0.129
0.031,0.945,0.152
0.031,0.984,0.156
0.035,1.063,0.18
-0.012,1.027,0.156
0.012,0.973,0.16
0.031,0.922,0.172
0.102,0.926,0.164
0.086,1.0,0.141
0.094,1.016,0.109
0.059,0.957,0.125
0.059,0.941,0.141
0.094,1.016,0.098
0.113,1.129,0.004
0.152,1.207,0.027
0.148,1.098,-0.078
0.105,0.859,-0.129
0.086,0.832,-0.098
0.07,0.914,-0.113
0.035,1.043,-0.156
0.051,1.008,-0.137
-0.004,0.977,-0.148
-0.004,0.922,-0.145
0.0,0.977,-0.109
0.004,1.0,-0.086
0.016,0.953,-0.074
-0.012,0.938,-0.098
-0.008,0.938,-0.09
-0.008,0.871,-0.082
-0.129,0.957,-0.07
-0.18,0.969,-0.07
-0.172,0.941,-0.051
-0.148,0.992,-0.039
-0.094,0.957,-0.023
-0.102,1.0,-0.016
-0.086,1.027,-0.039
-0.059,0.992,-0.07
-0.066,0.992,-0.074
0.004,1.082,-0.137
0.254,1.289,-0.152
0.266,1.398,-0.129
-0.102,0.984,-0.27
-0.168,0.727,-0.234
0.066,0.855,-0.086
0.246,1.055,-0.051
0.313,0.945,-0.055
0.328,0.852,-0.02
0.324,0.922,0.004
0.191,0.984,0.02
0.074,0.949,-0.016
0.047,0.953,0.016
0.074,1.023,0.035
0.078,0.965,0.094
0.035,0.961,0.09
0.082,0.961,0.09
0.109,0.988,0.113
0.074,0.984,0.141
0.035,1.031,0.215
0.027,1.055,0.191
0.082,1.055,0.199
0.098,1.105,0.246
0.035,1.109,0.262
-0.055,1.047,0.25
-0.102,1.008,0.227
-0.094,0.992,0.168
-0.098,1.09,0.02
-0.012,1.125,-0.066
0.164,1.035,-0.086
0.27,0.973,-0.16
0.305,1.035,-0.164
0.25,1.004,-0.207
0.145,0.934,-0.215
0.09,0.898,-0.23
0.063,0.879,-0.199
0.039,0.887,-0.195
0.043,0.895,-0.203
0.039,0.902,-0.23
0.059,0.91,-0.238
0.07,0.922,-0.215
0.078,0.898,-0.223
0.074,0.938,-0.242
0.094,0.984,-0.219
0.09,0.973,-0.23
0.074,0.957,-0.227
0.063,0.957,-0.227
0.086,0.945,-0.223
0.105,0.902,-0.211
0.117,0.918,-0.215
0.098,0.938,-0.23
0.105,0.957,-0.234
0.125,0.969,-0.227
0.141,0.965,-0.215
0.156,0.957,-0.203
0.16,0.914,-0.184
0.156,0.914,-0.199
0.184,0.922,-0.176
0.215,0.938,-0.16
0.207,0.941,-0.156
0.227,0.957,-0.141
0.238,0.91,-0.094
0.238,0.918,-0.07
0.219,0.969,-0.066
0.215,0.98,-0.078
0.195,0.91,-0.098
0.262,0.898,-0.113
0.273,0.941,-0.09
0.23,0.934,-0.094
0.176,0.965,-0.105
0.234,0.938,-0.07
0.242,0.93,-0.023
0.23,0.918,-0.047
0.355,0.957,-0.031
0.43,1.035,0.063
0.277,1.043,0.043
0.117,1.082,-0.031
0.152,1.07,-0.016
0.223,1.008,0.008
0.23,0.957,-0.012
0.215,0.93,-0.004
0.203,0.926,0.031
0.234,0.938,0.09
0.238,1.055,0.031
0.184,1.094,0.027
0.156,1.082,0.102
0.098,0.949,0.129
0.043,0.895,0.148
0.023,0.949,0.168
0.086,0.988,0.184
0.094,0.984,0.184
0.074,0.969,0.168
0.023,0.973,0.168
-0.004,0.953,0.176
-0.008,0.984,0.191
-0.039,1.008,0.188
-0.066,1.004,0.168
-0.086,0.988,0.152
-0.066,0.992,0.125
-0.031,0.977,0.129
-0.02,0.988,0.129
-0.047,0.969,0.129
-0.133,0.984,0.113
-0.176,1.004,0.113
-0.176,1.008,0.109
-0.164,1.027,0.078
-0.168,1.023,0.07
-0.133,1.027,0.043
-0.105,1.004,0.082
-0.109,1.02,0.094
-0.168,1.031,0.086
-0.199,1.066,0.051
-0.129,1.07,0.063
-0.008,1.035,0.094
0.063,1.004,0.039
0.078,1.039,0.027
0.105,1.039,0.012
0.156,0.969,0.043
0.195,0.926,-0.008
0.16,0.926,-0.07
0.133,1.008,-0.086
0.102,1.074,-0.098
0.094,1.039,-0.043
0.094,0.984,-0.031
0.086,0.91,-0.059
0.031,0.906,-0.09
0.004,0.98,-0.098
-0.039,1.008,-0.125
-0.031,1.0,-0.145
-0.012,0.961,-0.129
-0.012,0.957,-0.086
-0.023,0.945,-0.113
-0.039,0.957,-0.109
-0.051,0.969,-0.152
-0.059,0.938,-0.148
-0.07,0.926,-0.145
-0.078,0.953,-0.164
-0.086,0.949,-0.168
-0.105,0.91,-0.184
-0.113,0.93,-0.191
-0.109,0.918,-0.215
-0.121,0.883,-0.215
-0.059,0.867,-0.23
-0.09,0.945,-0.199
-0.145,0.992,-0.223
-0.152,1.0,-0.242
-0.18,1.063,-0.23
-0.238,1.074,-0.211
-0.25,1.004,-0.172
-0.242,0.934,-0.141
-0.117,1.008,-0.086
-0.113,1.082,-0.047
-0.07,0.965,-0.047
-0.059,0.953,-0.047
-0.137,1.047,0.0
-0.121,1.012,0.012
-0.125,1.02,-0.004
-0.148,0.992,0.012
-0.172,1.004,0.063
-0.18,1.027,0.012
-0.16,0.996,0.059
-0.176,0.973,0.063
-0.184,0.996,0.094
-0.191,0.973,0.09
-0.254,0.957,0.059
-0.199,0.992,0.063
-0.098,0.973,0.098
-0.113,0.969,0.082
-0.07,0.934,0.113
-0.09,0.992,0.117
-0.125,1.0,0.102
-0.023,0.992,0.16
0.051,1.0,0.133
0.066,0.949,0.137
0.039,0.969,0.113
-0.012,0.965,0.137
0.008,1.012,0.113
0.031,0.977,0.113
0.02,0.93,0.117
-0.035,0.977,0.113
-0.023,1.039,0.102
-0.039,1.004,0.113
-0.102,1.074,0.121
-0.039,1.059,0.117
0.043,1.008,0.098
0.102,0.984,0.094
0.098,1.043,0.109
0.027,1.047,0.09
-0.09,1.043,0.078
-0.113,0.996,0.07
-0.066,0.934,0.059
-0.016,0.949,0.055
-0.012,1.0,0.047
0.016,1.043,0.047
0.012,1.0,0.035
0.004,0.98,0.012
0.02,1.0,0.012
0.035,1.027,0.047
0.063,1.043,0.016
0.145,0.996,0.027
0.129,0.98,0.027
0.133,0.992,0.023
0.152,0.93,0.004
0.078,0.938,-0.012
0.055,1.004,-0.02
0.086,1.023,-0.043
0.086,0.945,-0.078
0.047,0.906,-0.09
0.035,0.953,-0.074
-0.02,1.074,-0.09
-0.055,1.027,-0.078
-0.109,0.91,-0.09
-0.078,0.906,-0.094
-0.102,1.016,-0.094
-0.082,1.051,-0.082
-0.004,0.98,-0.086
0.078,0.973,-0.074
0.117,0.992,-0.07
0.109,0.957,-0.066
0.113,0.953,-0.074
0.102,0.996,-0.07
0.09,0.984,-0.07
0.094,0.961,-0.063
0.098,0.98,-0.066
0.102,1.027,-0.078
0.086,0.984,-0.07
0.09,0.973,-0.07
0.117,0.969,-0.074
0.105,0.992,-0.078
0.094,0.973,-0.066
0.059,0.98,-0.09
0.055,1.031,-0.074
0.055,1.035,-0.086
0.063,1.027,-0.074
0.043,0.961,-0.07
-0.016,0.98,-0.078
-0.035,1.023,-0.082
-0.02,0.996,-0.055
0.043,0.973,-0.059
0.082,0.996,-0.063
0.07,0.992,-0.055
0.07,0.98,-0.066
0.098,0.992,-0.051
0.105,0.977,-0.055
0.074,0.996,-0.051
0.047,1.008,-0.055
0.031,0.992,-0.051
0.039,0.977,-0.051
0.059,0.984,-0.043
0.094,0.992,-0.031
0.137,0.984,-0.027
0.148,0.969,-0.023
0.113,0.996,-0.023
0.043,0.98,-0.043
0.051,0.996,-0.051
0.094,0.988,-0.051
0.168,0.977,-0.051
0.117,1.0,-0.055
0.039,0.988,-0.059
0.027,0.992,-0.07
0.059,0.984,-0.047
0.059,0.977,-0.055
0.074,0.988,-0.035
0.043,1.016,-0.039
0.0,0.996,-0.035
0.004,0.992,-0.043
0.035,0.988,-0.027
0.055,0.992,-0.027
0.047,0.996,-0.047
0.047,0.973,-0.055
0.055,0.969,-0.051
0.059,1.008,-0.047
0.055,1.016,-0.047
0.055,0.977,-0.051
0.055,0.965,-0.059
0.07,1.012,-0.051
0.07,1.031,-0.035
0.027,0.969,-0.047
-0.004,0.973,-0.047
-0.008,1.004,-0.047
0.047,0.973,-0.063
0.109,0.984,-0.07
0.133,0.984,-0.051
0.098,1.0,-0.035
0.027,1.008,-0.043
-0.016,0.973,-0.051
-0.012,1.004,-0.051
0.039,1.008,-0.055
0.078,0.969,-0.063
0.094,0.984,-0.055
0.063,0.996,-0.055
0.031,0.984,-0.059
0.008,0.988,-0.074
0.016,0.992,-0.078
0.055,0.996,-0.07
0.039,0.969,-0.086
0.039,0.914,-0.082
0.027,0.957,-0.051
-0.051,1.043,-0.047
-0.059,1.0,-0.031
0.043,0.957,0.09
0.152,0.91,0.176
0.098,0.992,0.145
-0.039,1.016,0.105
-0.117,1.039,0.043
0.039,1.031,0.066
0.246,0.992,0.09
0.332,0.977,0.137
0.238,0.977,0.156
0.059,0.984,0.125
-0.012,1.012,0.137
0.02,1.008,0.152
0.051,0.988,0.184
0.074,0.98,0.211
0.055,0.992,0.23
0.031,1.043,0.242
0.105,1.0,0.238
0.172,0.914,0.246
0.195,0.93,0.219
0.152,1.012,0.117
0.18,1.176,-0.02
0.223,1.23,-0.18
0.324,1.133,-0.281
0.363,1.094,-0.328
0.293,1.051,-0.391
0.207,0.957,-0.367
0.129,0.953,-0.359
0.121,0.801,-0.34
0.082,0.656,-0.313
0.16,0.664,-0.266
0.219,0.809,-0.27
0.223,0.855,-0.32
0.211,0.863,-0.344
0.176,0.895,-0.324
0.137,0.902,-0.348
0.152,0.887,-0.344
0.191,0.867,-0.297
0.23,0.895,-0.281
0.234,0.898,-0.297
0.199,0.906,-0.285
0.195,0.898,-0.289
0.199,0.883,-0.301
0.184,0.883,-0.293
0.172,0.891,-0.273
0.164,0.926,-0.285
0.121,0.953,-0.309
0.117,0.934,-0.305
0.148,0.93,-0.289
0.195,0.949,-0.273
0.203,0.969,-0.242
0.164,0.945,-0.234
0.133,0.914,-0.258
0.117,0.918,-0.234
0.129,0.941,-0.23
0.137,0.949,-0.223
0.156,0.941,-0.219
0.164,0.957,-0.211
0.203,0.973,-0.227
0.188,0.973,-0.215
0.18,0.961,-0.219
0.156,0.969,-0.219
0.129,0.953,-0.219
0.102,0.965,-0.23
0.109,0.93,-0.234
0.098,0.941,-0.188
0.09,0.957,-0.168
0.133,0.961,-0.184
0.113,0.945,-0.199
0.066,0.969,-0.195
0.074,0.988,-0.191
0.109,0.98,-0.184
0.125,0.961,-0.156
0.102,0.98,-0.145
0.121,0.992,-0.133
0.137,0.98,-0.105
0.121,0.984,-0.121
0.121,0.957,-0.063
0.105,0.965,-0.051
0.094,0.98,-0.051
0.102,0.957,-0.02
0.07,0.965,-0.004
0.047,1.0,0.012
0.02,1.113,0.059
0.012,1.102,0.039
-0.023,1.078,0.078
-0.035,1.063,0.109
-0.02,0.957,0.102
0.055,0.941,0.086
0.063,0.988,0.082
-0.027,0.98,0.07
-0.066,1.004,0.066
-0.035,1.055,0.086
0.008,1.016,0.082
0.027,0.957,0.098
0.055,1.008,0.109
0.063,1.027,0.121
0.066,1.008,0.117
0.063,0.949,0.105
0.031,0.98,0.105
0.043,1.023,0.102
0.086,1.004,0.105
0.125,0.973,0.113
0.125,0.977,0.102
0.117,0.969,0.105
0.109,0.996,0.113
0.098,0.996,0.125
0.129,0.965,0.109
0.188,0.945,0.113
0.219,0.949,0.113
0.219,0.965,0.117
0.188,0.957,0.113
0.125,0.938,0.109
0.07,0.961,0.121
0.027,0.988,0.098
0.047,0.961,0.059
0.141,0.855,0.074
0.141,0.941,0.0
0.063,1.297,-0.148
0.066,1.152,-0.125
-0.035,0.969,-0.141
-0.137,0.934,-0.16
-0.188,1.098,-0.191
-0.141,1.066,-0.141
-0.098,0.957,-0.051
-0.063,0.934,-0.008
-0.004,0.941,0.016
-0.055,0.961,0.004
-0.082,0.988,0.055
-0.039,0.957,0.059
0.031,0.906,0.023
-0.012,0.938,-0.027
-0.004,0.945,0.012
-0.027,1.008,0.027
-0.109,1.113,0.012
-0.172,1.145,-0.027
-0.352,1.094,-0.09
0.016,1.18,-0.156
0.582,1.484,-0.023
0.355,0.945,-0.145
-0.035,0.621,-0.164
0.051,0.863,-0.051
0.258,1.031,0.031
0.277,0.93,-0.023
0.172,0.84,-0.055
0.066,0.848,-0.047
-0.012,0.867,-0.023
-0.031,0.828,-0.008
0.066,0.898,0.066
0.086,0.914,0.074
0.094,0.91,0.078
0.078,0.949,0.082
0.16,1.012,-0.039
0.188,1.059,0.105
-0.082,1.012,0.137
-0.012,1.313,0.168
0.156,1.371,0.098
0.277,1.148,0.18
0.254,1.027,0.133
0.113,1.266,-0.055
0.031,1.395,-0.063
0.043,1.059,0.074
0.012,0.816,0.063
0.008,0.695,0.039
0.086,0.609,0.0
0.152,0.656,-0.008
0.113,0.707,-0.066
-0.004,0.574,-0.141
-0.148,0.719,-0.148
-0.094,0.914,-0.051
0.184,1.465,-0.098
-0.211,1.512,-0.258
-0.191,1.352,-0.352
0.453,1.574,-0.051
0.297,0.902,-0.117
0.031,0.727,-0.008
0.184,0.805,0.008
0.418,0.988,0.063
0.191,0.949,-0.004
0.027,0.813,0.004
-0.023,0.762,0.051
-0.004,0.727,0.027
0.105,0.781,0.063
0.152,0.879,0.109
0.063,0.922,0.094
-0.082,1.016,-0.066
-0.141,1.152,0.031
-0.473,1.105,0.188
-0.012,1.156,0.039
0.617,1.402,0.129
0.539,1.242,0.332
0.41,1.176,-0.027
0.195,1.449,-0.168
0.008,1.293,-0.004
0.02,0.945,-0.016
0.035,0.629,0.047
0.09,0.57,0.031
0.168,0.539,-0.008
0.129,0.664,-0.051
0.016,0.559,-0.039
-0.141,0.578,-0.117
-0.086,0.832,-0.078
0.25,1.348,-0.109
-0.113,1.887,-0.301
-0.359,0.875,-0.203
0.371,1.586,0.059
0.469,1.273,0.012
-0.098,0.965,0.004
-0.051,0.781,0.082
0.449,0.746,0.18
0.41,0.906,0.16
0.25,0.867,0.07
0.094,0.82,0.016
0.023,0.652,0.043
-0.035,0.781,0.09
0.129,0.836,0.148
0.098,0.949,0.094
0.016,1.098,-0.055
-0.012,1.184,-0.027
-0.074,1.156,0.02
0.453,1.262,0.227
0.273,1.457,0.348
0.082,1.102,0.371
0.191,1.078,0.051
0.156,1.02,0.109
0.133,0.969,0.176
0.223,0.922,0.16
0.148,0.664,0.117
0.18,0.617,0.012
0.273,0.703,-0.043
0.125,0.668,-0.121
0.031,0.758,-0.234
0.164,1.004,-0.184
0.309,1.309,-0.199
0.063,1.383,-0.402
-0.09,1.082,-0.238
0.332,1.336,0.043
0.012,0.984,0.035
0.008,1.023,0.219
0.223,0.82,0.305
0.41,0.605,0.27
0.402,1.094,0.281
0.148,0.992,0.145
0.07,0.836,0.125
0.121,0.801,0.125
0.176,0.797,0.129
0.105,0.816,0.121
0.086,0.836,0.09
0.098,0.922,0.039
0.105,1.031,-0.035
0.043,1.094,0.012
-0.035,1.086,-0.082
-0.008,1.164,0.027
0.363,1.348,0.266
0.277,1.285,0.484
0.094,1.133,0.313
0.352,1.18,0.105
0.348,1.199,0.203
0.18,0.98,0.145
0.16,0.766,0.145
0.082,0.563,0.008
0.102,0.582,-0.023
0.203,0.609,-0.07
0.152,0.613,-0.16
0.027,0.672,-0.328
-0.023,1.031,-0.293
0.23,1.488,-0.02
-0.094,1.594,-0.504
-0.258,1.039,-0.297
0.559,1.379,-0.023
0.434,1.047,0.102
0.137,0.93,0.098
0.16,0.848,0.082
0.41,0.801,0.105
0.332,1.09,0.082
0.121,0.867,0.063
0.043,0.82,0.039
-0.023,0.84,0.035
-0.043,0.793,0.043
-0.051,0.777,0.039
-0.063,0.852,0.059
-0.023,0.988,-0.016
0.141,0.98,-0.035
0.051,1.027,0.066
-0.219,1.102,0.09
-0.133,1.313,0.047
0.379,1.34,-0.082
0.363,1.09,0.148
0.273,1.188,0.004
0.297,1.461,-0.176
0.063,1.246,-0.105
-0.035,0.895,-0.07
0.027,0.695,0.008
0.141,0.527,0.008
0.109,0.461,-0.039
0.051,0.523,-0.082
-0.027,0.516,-0.109
-0.105,0.508,-0.191
-0.152,0.883,-0.195
0.203,1.285,0.121
0.008,2.008,-0.141
-0.578,1.488,-0.34
0.344,1.75,-0.16
0.629,1.219,0.0
0.301,0.625,-0.09
0.223,0.977,-0.031
0.383,0.863,0.004
0.305,0.844,-0.02
0.215,0.676,-0.047
0.148,0.641,-0.016
0.02,0.762,-0.008
-0.102,0.793,0.043
-0.07,0.813,0.063
0.102,0.953,0.012
0.094,1.02,-0.074
-0.176,0.992,0.121
-0.258,1.129,0.031
0.73,1.5,-0.207
0.82,1.328,0.492
0.66,1.52,0.023
0.457,1.363,-0.172
-0.109,1.266,-0.141
-0.195,0.758,-0.074
-0.066,0.473,0.156
0.086,0.281,0.047
0.254,0.332,-0.102
0.195,0.535,-0.125
-0.184,0.469,-0.207
-0.406,0.805,-0.27
0.199,1.277,0.148
0.129,2.691,-0.336
-0.641,0.957,-0.309
0.617,1.547,-0.125
0.621,1.141,-0.004
0.305,0.895,-0.117
0.277,0.789,-0.039
0.461,0.867,0.043
0.305,0.77,-0.039
0.195,0.645,-0.051
0.008,0.688,-0.063
-0.148,0.762,0.02
-0.203,0.727,0.027
0.008,0.941,0.012
0.18,1.027,0.039
-0.121,1.031,0.141
-0.582,1.043,0.008
0.559,1.461,0.027
0.906,1.094,0.242
0.391,1.355,0.121
0.418,1.656,-0.016
0.34,1.473,-0.086
0.039,0.922,-0.078
-0.117,0.516,-0.012
-0.078,0.457,0.055
0.039,0.297,-0.059
0.137,0.41,-0.066
0.004,0.434,-0.137
-0.129,0.625,-0.273
0.32,1.133,0.141
0.16,3.07,-0.242
-0.742,1.035,-0.27
0.465,1.82,-0.129
0.637,1.086,-0.043
0.254,0.621,-0.125
0.152,0.848,-0.074
0.41,0.898,0.023
0.211,0.797,-0.078
0.129,0.727,-0.074
0.023,0.668,-0.051
-0.09,0.852,-0.004
-0.188,0.836,-0.016
-0.059,0.922,0.0
0.148,0.965,-0.035
-0.039,0.895,0.129
-0.07,1.094,0.02
0.695,1.371,-0.102
0.594,1.199,0.23
0.504,1.441,-0.121
0.156,1.547,-0.195
-0.273,1.328,-0.184
-0.223,0.773,-0.145
-0.035,0.57,0.074
0.09,0.359,0.059
0.195,0.355,-0.086
0.121,0.43,-0.098
-0.141,0.367,-0.156
-0.238,0.762,-0.227
0.398,1.324,0.215
0.023,2.391,-0.34
-0.555,1.008,-0.504
0.465,1.965,-0.086
0.414,0.613,-0.137
0.234,0.633,-0.156
0.273,0.871,-0.074
0.359,1.098,-0.004
0.152,0.805,-0.078
0.188,0.746,-0.051
0.121,0.734,-0.023
0.016,0.906,-0.004
-0.148,0.859,-0.02
-0.078,0.836,-0.031
0.063,0.934,0.023
-0.176,0.875,0.109
-0.316,1.004,0.016
0.734,1.344,-0.133
0.746,1.293,0.332
0.586,1.523,-0.074
0.168,1.68,-0.199
-0.125,1.336,-0.125
-0.059,0.688,-0.059
0.051,0.543,0.063
0.141,0.32,-0.043
0.199,0.383,-0.102
0.207,0.527,-0.113
-0.086,0.547,-0.199
-0.25,0.801,-0.223
0.223,1.156,0.129
0.023,2.313,-0.359
-0.422,1.168,-0.285
0.457,1.809,-0.125
0.324,0.629,-0.164
0.281,0.844,-0.164
0.359,1.043,-0.051
0.574,0.953,-0.012
0.344,0.742,-0.051
0.117,0.77,-0.059
0.012,0.789,-0.031
-0.078,0.734,-0.023
-0.168,0.82,0.008
-0.176,0.891,-0.039
0.027,0.949,-0.039
0.102,0.969,0.039
-0.445,0.961,0.109
0.223,1.246,-0.004
0.887,1.219,0.031
0.629,1.207,0.242
0.492,1.535,-0.086
0.145,1.539,-0.164
-0.195,1.25,-0.129
-0.156,0.738,-0.102
-0.008,0.586,0.102
0.094,0.371,0.008
0.211,0.422,-0.047
0.184,0.508,-0.07
-0.102,0.426,-0.152
-0.109,0.762,-0.195
0.352,1.164,0.086
-0.004,2.48,-0.313
-0.848,0.914,-0.324
0.383,1.512,-0.191
0.605,1.402,0.09
0.223,0.723,-0.148
0.184,0.648,-0.078
0.48,0.871,0.07
0.355,0.918,0.012
0.16,0.844,-0.055
0.027,0.668,-0.027
-0.117,0.824,-0.016
-0.156,0.809,0.008
-0.02,0.844,0.023
0.125,0.984,0.031
0.117,0.965,-0.016
-0.402,0.984,0.082
0.035,1.371,0.0
0.66,1.332,0.059
0.578,1.012,0.348
0.383,1.25,-0.043
0.164,1.504,-0.098
-0.078,1.379,-0.043
-0.027,0.93,-0.039
-0.008,0.641,0.035
0.027,0.492,0.047
0.16,0.449,-0.023
0.234,0.566,-0.031
0.051,0.527,-0.063
-0.133,0.563,-0.219
-0.02,1.18,-0.031
0.305,1.883,-0.082
-0.48,1.449,-0.188
0.133,1.414,-0.238
0.504,1.492,-0.035
0.23,0.609,-0.133
0.145,0.797,0.0
0.457,0.973,0.066
0.402,0.922,0.004
0.168,0.801,-0.047
0.051,0.707,-0.016
-0.098,0.793,-0.004
-0.191,0.816,-0.004
-0.172,0.891,0.016
-0.063,0.953,0.023
0.16,0.934,-0.047
0.223,1.035,0.02
-0.352,0.922,0.055
0.309,1.262,0.137
0.77,1.383,0.293
0.414,1.223,0.266
0.328,1.316,-0.066
0.098,1.418,-0.051
-0.074,1.188,-0.012
-0.117,0.797,-0.031
-0.004,0.598,0.031
0.082,0.422,-0.027
0.168,0.504,-0.07
0.148,0.578,-0.09
-0.18,0.582,-0.242
-0.313,0.863,-0.078
0.328,0.941,-0.047
-0.09,2.484,-0.148
-0.363,0.992,-0.195
0.488,1.566,-0.082
0.457,0.988,-0.094
0.172,0.984,0.004
0.414,0.918,0.074
0.543,0.91,0.0
0.086,0.836,-0.195
-0.285,0.867,-0.051
-0.367,0.742,0.055
-0.035,0.398,0.125
0.16,0.441,0.141
0.215,0.902,0.141
0.348,1.191,0.023
0.258,1.273,0.148
-0.516,1.152,0.164
0.148,1.449,-0.086
0.559,1.324,0.285
0.539,1.16,0.355
0.313,1.246,-0.133
0.078,1.48,-0.133
0.078,1.035,-0.016
0.074,0.691,0.047
0.078,0.566,0.074
0.137,0.441,-0.047
0.152,0.488,-0.063
0.004,0.508,-0.043
-0.285,0.535,-0.137
-0.121,1.0,-0.215
0.418,1.086,0.105
-0.082,2.207,-0.148
-0.551,0.754,-0.387
0.48,1.98,-0.043
0.52,1.262,-0.105
0.113,0.664,-0.121
0.211,0.613,0.0
0.488,0.969,0.035
0.324,0.875,-0.059
0.203,0.699,-0.059
0.074,0.676,-0.008
-0.129,0.758,0.004
-0.105,0.777,0.07
0.07,0.973,0.09
0.102,1.066,0.012
0.027,1.055,0.039
-0.586,0.973,0.125
0.301,1.445,-0.109
0.59,1.234,0.227
0.453,1.199,0.273
0.305,1.477,-0.152
0.16,1.527,-0.078
0.172,1.059,-0.004
0.047,0.699,0.008
0.043,0.551,0.07
0.066,0.414,-0.008
0.148,0.48,-0.027
0.137,0.613,-0.027
-0.078,0.52,-0.09
-0.133,0.84,-0.277
0.328,1.055,0.137
0.004,2.582,-0.125
-0.727,0.852,-0.258
0.34,1.656,-0.199
0.652,1.273,0.02
0.25,0.734,-0.152
0.145,0.703,-0.082
0.473,0.871,0.063
0.359,0.855,-0.031
0.219,0.742,-0.039
0.074,0.668,-0.004
-0.07,0.816,0.027
-0.164,0.797,0.023
-0.066,0.82,-0.008
0.137,1.031,0.008
0.078,1.035,0.066
-0.582,1.051,0.086
0.176,1.461,-0.07
0.605,1.184,0.121
0.547,1.066,0.27
0.434,1.496,0.0
0.164,1.52,-0.168
-0.027,1.152,-0.059
-0.043,0.727,-0.027
-0.012,0.637,0.074
0.098,0.473,0.035
0.207,0.52,-0.043
0.176,0.551,-0.074
-0.066,0.492,-0.098
-0.227,0.586,-0.227
0.215,1.176,-0.141
0.344,2.539,-0.082
-0.707,1.148,-0.215
0.254,1.031,-0.32
0.625,1.645,0.125
0.398,0.883,-0.078
0.184,0.723,-0.086
0.449,0.84,0.051
0.336,1.027,0.043
0.094,0.879,-0.008
0.066,0.719,-0.039
0.012,0.656,-0.031
-0.008,0.918,-0.047
-0.105,0.926,-0.039
-0.238,0.891,-0.027
-0.258,1.023,-0.086
-0.172,1.051,-0.152
-0.078,0.957,-0.16
-0.047,0.895,-0.027
0.652,1.07,0.191
0.773,1.434,0.109
0.102,1.305,0.043
0.219,1.305,-0.078
0.457,1.461,-0.047
0.25,1.234,-0.078
0.313,0.965,0.059
0.344,0.922,-0.004
0.133,0.688,-0.102
0.016,0.578,-0.063
-0.008,0.648,-0.051
0.113,0.754,0.023
0.129,0.898,0.039
0.18,0.734,0.047
0.313,0.547,0.039
0.516,1.484,0.082
0.23,1.258,-0.012
0.074,0.895,0.02
0.301,0.906,0.094
0.305,1.051,0.148
0.027,1.086,0.078
-0.031,1.012,0.047
0.07,1.023,0.082
0.121,0.98,0.105
0.066,0.996,0.047
0.004,1.008,0.039
-0.055,0.984,0.035
-0.109,0.988,0.078
-0.199,0.98,0.094
-0.277,1.004,0.031
-0.328,1.059,-0.027
-0.281,1.027,-0.09
-0.246,1.043,-0.117
-0.262,1.113,-0.254
-0.324,1.141,-0.352
-0.371,1.098,-0.348
-0.387,0.965,-0.289
-0.344,0.879,-0.316
-0.254,0.953,-0.297
-0.195,0.984,-0.301
-0.211,0.945,-0.281
-0.234,0.941,-0.246
-0.184,0.957,-0.215
-0.109,0.938,-0.156
-0.066,0.957,-0.141
-0.047,0.973,-0.129
0.012,0.965,-0.117
0.059,0.98,-0.109
0.102,1.0,-0.09
0.133,0.969,-0.094
0.168,0.953,-0.082
0.141,0.922,-0.09
0.098,0.895,-0.082
0.102,0.914,-0.098
0.145,0.977,-0.02
0.109,0.996,-0.016
0.109,0.988,-0.031
0.109,0.988,-0.039
0.047,0.992,-0.039
-0.004,0.969,-0.027
-0.078,0.934,-0.055
-0.09,0.953,-0.078
-0.059,0.965,-0.086
-0.102,0.914,-0.133
-0.184,0.938,-0.156
-0.199,0.859,-0.16
-0.18,0.832,-0.23
-0.16,0.914,-0.258
-0.242,0.953,-0.23
-0.277,1.008,-0.227
-0.27,1.113,-0.242
-0.34,1.16,-0.27
0.031,1.332,-0.258
0.578,1.469,0.008
0.309,0.895,-0.078
0.105,0.781,-0.125
0.164,1.035,-0.035
0.102,1.246,0.035
-0.004,1.082,-0.004
-0.027,0.84,-0.078
-0.098,0.934,-0.07
-0.137,0.918,0.016
-0.055,1.027,0.078
0.168,0.887,0.117
0.242,0.719,0.168
0.219,0.785,0.141
0.051,0.953,0.098
-0.008,1.004,0.004
0.066,0.992,0.023
0.156,1.063,0.121
0.328,1.133,0.23
0.242,1.273,0.254
0.012,1.199,0.246
0.367,1.012,0.145
0.402,0.852,0.066
0.082,1.078,-0.043
0.016,1.121,0.102
0.137,1.039,0.168
0.105,0.871,0.039
0.07,0.852,0.078
0.152,0.855,0.105
0.168,0.848,0.078
0.113,0.824,0.043
0.086,0.711,-0.031
-0.051,0.895,0.035
-0.137,0.941,0.063
-0.035,1.152,0.043
-0.129,1.449,0.023
-0.352,1.195,-0.043
-0.07,1.105,-0.039
0.523,1.496,0.285
0.578,1.063,-0.125
0.164,0.707,0.004
0.27,0.742,0.141
0.535,1.059,0.168
0.504,0.988,0.063
0.266,0.871,0.0
0.043,0.934,-0.055
-0.059,0.91,-0.027
0.0,0.887,0.027
0.063,0.891,0.078
0.078,0.934,0.145
0.066,0.965,0.152
0.078,0.996,0.063
0.176,1.109,0.02
0.176,1.074,0.09
0.051,0.953,0.156
0.324,1.043,0.094
0.438,1.262,0.055
0.199,1.184,0.117
0.406,1.023,0.07
0.414,0.895,-0.168
0.113,1.043,-0.156
0.043,1.008,0.008
0.152,0.918,-0.012
0.172,0.816,-0.074
0.16,0.785,-0.066
0.199,0.809,-0.074
0.207,0.879,-0.051
0.176,0.859,-0.078
0.227,0.801,-0.102
0.348,0.844,-0.078
0.488,0.914,-0.039
0.621,0.926,0.008
0.645,0.867,-0.016
0.555,0.867,-0.008
0.426,0.957,-0.043
0.313,0.969,-0.066
0.219,0.941,-0.086
0.152,0.98,-0.164
0.145,1.004,-0.164
0.148,0.996,-0.184
0.133,0.98,-0.184
0.086,0.934,-0.16
0.035,0.914,-0.172
-0.02,0.922,-0.176
-0.078,0.926,-0.184
-0.113,0.941,-0.219
-0.086,0.977,-0.191
-0.047,1.129,-0.215
-0.102,1.211,-0.184
-0.035,1.02,-0.309
0.141,1.133,-0.09
0.254,1.109,-0.113
0.184,0.988,-0.082
0.055,0.879,-0.074
0.059,0.902,-0.066
0.129,1.0,-0.035
0.113,0.953,-0.035
0.102,0.969,-0.016
0.102,0.918,0.012
0.109,0.914,0.035
0.113,0.934,0.082
0.012,0.984,0.082
-0.086,0.977,0.055
-0.105,0.957,0.039
0.023,0.93,0.086
0.039,0.91,0.223
-0.09,1.07,0.168
0.16,1.164,-0.277
0.402,1.461,-0.176
0.688,1.172,-0.105
0.441,1.051,-0.305
0.18,1.199,-0.223
0.199,1.016,-0.125
0.25,0.824,0.004
0.266,0.719,-0.023
0.176,0.695,-0.094
0.141,0.684,-0.113
0.074,0.711,-0.145
0.02,0.641,-0.16
-0.035,0.59,-0.152
-0.168,0.664,-0.156
-0.047,0.91,-0.086
0.395,1.277,-0.047
-0.289,1.445,-0.078
-0.105,1.539,-0.566
0.52,1.754,-0.117
0.359,0.695,-0.066
0.117,0.668,-0.16
0.332,1.16,-0.051
0.32,1.066,-0.023
0.137,0.859,-0.055
0.059,0.918,-0.027
0.023,0.957,-0.012
-0.023,0.953,-0.035
-0.082,0.949,-0.016
-0.109,0.926,-0.035
-0.102,0.891,0.031
0.02,0.906,-0.129
0.035,0.938,-0.059
-0.063,1.07,-0.027
0.406,1.133,0.055
0.793,1.129,0.129
0.441,0.98,0.055
0.336,1.18,-0.113
0.227,1.379,-0.223
0.023,1.254,-0.125
0.07,0.863,-0.063
0.16,0.691,-0.059
0.18,0.637,-0.102
0.09,0.668,-0.188
-0.016,0.641,-0.266
-0.094,0.602,-0.234
-0.105,0.691,-0.23
0.012,0.836,-0.215
-0.031,1.629,-0.121
-0.422,0.617,-0.066
0.43,1.207,-0.121
0.574,2.223,0.035
-0.23,1.059,0.094
-0.141,0.57,0.117
0.391,0.844,0.184
0.477,1.055,0.094
0.09,0.859,0.02
-0.07,0.789,-0.105
-0.098,0.844,0.086
-0.125,0.746,0.086
-0.113,0.75,0.004
0.059,0.695,0.137
0.309,0.738,0.082
0.465,0.617,0.121
0.293,0.563,0.031
-0.109,0.656,0.004
-0.156,0.613,-0.18
-0.004,1.691,-0.266
0.293,1.887,-0.344
0.008,1.535,-0.219
-0.387,1.219,-0.137
-0.574,1.0,-0.082
0.203,0.555,-0.07
0.48,0.664,0.027
-0.063,0.324,0.137
-0.102,-0.211,0.047
0.223,0.043,-0.043
0.426,2.242,0.168
0.328,2.273,0.293
-0.113,1.41,0.066
-0.039,1.242,0.094
0.129,1.211,0.109
0.215,0.891,-0.012
0.27,0.582,-0.004
0.051,0.395,-0.012
0.016,0.395,-0.145
-0.051,0.773,-0.008
0.176,1.57,-0.102
0.441,1.699,-0.117
0.098,1.461,-0.176
-0.23,1.219,-0.145
-0.332,0.879,-0.176
0.16,0.402,-0.07
0.148,0.391,-0.012
-0.039,0.086,0.043
0.402,-0.02,0.086
0.691,1.77,0.078
0.109,1.926,0.066
-0.191,1.355,-0.055
-0.012,1.414,0.285
0.266,1.121,0.16
0.332,0.93,0.008
0.199,0.59,-0.039
-0.051,0.41,-0.059
-0.07,0.523,-0.078
-0.145,1.004,-0.07
0.281,1.543,-0.168
0.582,1.867,-0.301
0.086,1.188,-0.078
-0.246,0.836,-0.094
-0.215,0.547,-0.133
0.18,0.328,-0.035
0.109,0.344,-0.031
0.238,0.18,-0.109
0.406,1.613,-0.016
0.395,1.957,0.152
-0.02,1.457,0.043
-0.027,1.441,0.188
0.184,1.23,0.121
0.262,1.055,-0.074
0.191,0.824,-0.023
0.176,0.602,-0.023
0.105,0.531,-0.098
-0.039,0.609,-0.113
-0.063,0.828,-0.008
0.121,1.402,-0.102
0.336,1.75,-0.113
0.098,1.301,-0.145
-0.137,1.117,-0.16
-0.094,0.996,-0.176
0.328,0.602,-0.008
0.105,0.504,-0.012
-0.09,-0.004,0.098
0.293,0.309,0.012
0.555,1.531,0.23
0.207,1.488,0.082
-0.078,1.348,0.063
-0.141,1.293,0.125
-0.082,1.184,0.023
-0.133,1.078,0.004
-0.188,0.957,-0.016
-0.074,0.805,0.051
0.277,0.715,0.047
0.387,0.84,-0.039
0.117,1.168,-0.086
0.004,1.496,0.07
0.074,1.359,0.078
0.105,1.156,-0.055
0.082,0.844,-0.035
-0.023,0.754,0.0
-0.148,0.73,-0.031
-0.066,0.699,0.059
0.051,0.914,-0.086
-0.141,1.152,-0.031
-0.137,0.871,-0.172
0.137,1.293,-0.012
0.254,1.586,0.055
0.156,1.59,0.105
0.332,1.355,0.137
0.516,1.305,-0.004
0.434,1.199,-0.023
0.133,1.102,-0.063
-0.027,0.922,-0.02
-0.09,0.777,0.039
-0.086,0.652,0.105
-0.117,0.652,0.105
-0.047,0.719,0.0
0.148,0.879,-0.094
0.035,0.914,0.219
0.461,1.371,0.125
0.434,1.305,0.316
0.406,1.098,0.016
0.043,1.188,-0.254
-0.18,1.223,-0.098
0.074,1.176,0.117
0.168,1.047,0.176
0.102,0.996,0.133
0.098,0.918,0.125
0.156,0.824,0.148
0.188,0.801,0.164
0.262,0.703,0.156
0.48,0.699,0.113
0.273,0.91,0.109
-0.047,0.934,0.133
-0.266,1.23,0.102
-0.313,1.211,0.148
-0.555,1.246,0.105
-0.305,1.031,-0.082
0.629,1.629,0.371
0.68,0.977,-0.148
0.332,0.656,-0.27
0.359,0.824,0.039
0.441,1.234,0.117
0.207,0.984,-0.047
0.09,0.738,-0.039
0.07,0.836,0.008
0.133,0.797,-0.027
0.09,0.664,0.012
0.043,0.559,0.086
-0.023,0.609,0.07
-0.086,0.66,-0.031
-0.055,0.785,-0.016
0.055,0.805,-0.047
0.215,0.684,0.02
0.18,0.828,-0.012
-0.137,1.477,-0.09
0.191,1.512,-0.152
0.395,1.586,-0.152
0.152,1.238,-0.105
-0.152,1.055,-0.207
-0.223,0.746,-0.258
-0.195,0.688,-0.109
0.195,0.383,-0.027
-0.102,0.352,0.176
0.188,-0.117,0.109
0.699,1.035,-0.09
0.559,2.336,0.156
-0.145,1.488,0.059
-0.184,1.398,0.078
0.102,1.129,0.121
0.25,0.887,0.09
0.258,0.754,0.016
0.176,0.484,-0.055
-0.031,0.766,-0.051
-0.047,1.25,-0.008
0.406,1.445,-0.359
0.48,1.691,-0.18
0.082,1.094,-0.117
-0.313,0.867,-0.164
-0.379,0.77,-0.172
0.188,0.316,-0.012
0.121,0.461,0.066
0.121,0.109,0.051
0.547,0.762,0.031
0.434,1.844,0.141
-0.125,1.426,0.008
-0.207,1.508,0.07
0.047,1.242,0.086
0.16,0.988,0.02
0.207,0.738,-0.043
0.23,0.66,0.012
0.164,0.559,-0.051
-0.039,0.949,-0.109
0.086,1.477,-0.098
0.477,1.441,-0.215
0.176,1.43,-0.082
-0.051,1.156,-0.129
-0.141,0.941,-0.145
-0.195,0.918,-0.152
0.398,0.434,-0.02
0.09,0.465,0.055
-0.23,-0.039,0.027
0.23,0.09,0.09
0.609,2.063,0.039
0.41,2.105,0.117
-0.195,1.367,-0.012
-0.18,1.176,0.02
0.133,1.051,0.016
0.324,0.875,0.074
0.301,0.559,0.008
0.055,0.449,0.016
0.0,0.301,-0.094
0.078,0.727,-0.102
0.141,1.809,-0.188
0.438,1.953,-0.191
0.223,1.52,-0.277
-0.027,1.09,-0.18
-0.109,1.012,-0.09
0.285,0.746,-0.098
0.25,0.563,-0.094
-0.055,0.328,0.07
-0.262,-0.156,0.016
0.133,0.008,-0.035
0.516,1.715,0.012
0.371,2.047,0.016
-0.211,1.438,0.082
-0.438,1.133,-0.012
-0.246,1.027,0.016
-0.109,1.082,0.098
-0.039,0.832,0.07
0.227,0.52,0.051
0.359,0.723,-0.105
0.305,1.434,-0.223
0.195,1.551,-0.238
0.16,1.402,-0.191
-0.035,1.371,-0.152
-0.121,1.082,-0.215
-0.074,0.875,-0.109
-0.02,0.852,-0.145
-0.125,0.922,-0.23
-0.086,0.594,0.012
-0.063,0.801,-0.02
-0.141,0.953,-0.051
-0.477,0.758,0.047
-0.602,0.664,0.008
0.109,0.652,-0.098
0.719,1.727,0.273
0.539,1.5,0.273
0.363,1.465,0.172
0.438,1.438,0.207
0.297,1.414,0.09
0.016,1.453,0.031
-0.043,1.055,-0.004
-0.012,0.813,0.047
0.016,0.672,0.098
0.043,0.637,0.148
0.055,0.711,0.176
0.035,0.813,0.082
-0.02,1.031,-0.105
-0.18,1.09,0.016
-0.012,0.906,0.324
0.387,1.102,0.367
0.418,1.145,0.172
0.348,1.188,0.008
0.051,1.355,0.059
-0.055,1.176,0.055
0.016,1.086,0.094
-0.012,0.938,0.125
0.004,0.879,0.117
0.105,0.809,0.105
0.172,0.809,0.063
0.195,0.785,0.02
0.105,0.863,0.02
0.043,0.938,0.047
0.012,1.016,0.016
-0.133,1.125,-0.012
-0.156,0.863,0.0
0.125,0.871,-0.023
0.141,1.395,0.129
0.164,1.227,-0.105
0.152,0.914,-0.031
0.332,0.891,0.168
0.398,0.875,0.152
0.313,0.926,0.043
0.145,0.961,0.047
0.004,0.895,0.051
0.027,0.844,0.043
0.074,0.777,0.105
0.047,0.723,0.113
0.004,0.707,0.117
0.059,0.727,0.059
0.063,0.828,-0.043
0.105,0.781,-0.047
0.207,0.652,-0.051
0.215,0.738,0.07
-0.004,1.285,-0.031
0.195,1.484,-0.145
0.305,1.656,-0.168
0.09,1.324,-0.086
-0.109,0.82,-0.063
-0.242,0.703,-0.031
-0.227,0.832,-0.051
0.223,0.785,-0.027
0.336,0.859,0.039
0.09,0.531,-0.027
0.145,0.402,-0.02
0.324,0.84,-0.117
0.262,1.391,-0.016
0.086,1.656,-0.016
0.051,1.445,0.141
-0.18,1.227,0.016
-0.027,1.203,-0.012
0.242,1.035,0.152
0.199,0.961,0.172
-0.039,0.844,0.043
-0.137,0.719,-0.047
0.055,0.648,0.004
0.051,0.758,-0.07
0.223,0.59,-0.098
0.246,0.633,0.109
0.008,0.898,0.09
-0.109,1.633,-0.082
0.27,1.59,-0.105
0.297,1.523,-0.141
0.059,1.051,-0.117
-0.125,0.766,-0.027
-0.203,0.832,-0.133
-0.203,0.906,-0.164
0.387,0.648,0.074
0.152,0.691,0.023
0.086,0.152,0.074
0.18,0.277,0.066
0.445,1.512,-0.094
0.371,1.855,0.051
-0.137,1.355,0.102
-0.281,1.477,0.074
-0.031,1.258,0.066
0.254,1.027,0.184
0.09,0.934,0.078
-0.148,0.809,0.008
-0.027,0.504,-0.004
0.082,0.586,-0.02
0.293,0.48,-0.02
0.219,0.707,-0.004
0.055,1.168,-0.059
0.258,1.512,-0.07
0.238,1.664,-0.137
0.113,1.363,-0.082
-0.121,0.949,-0.008
-0.168,0.879,-0.066
-0.074,0.809,-0.129
0.465,0.734,0.07
0.238,0.625,-0.023
0.016,0.141,-0.078
0.23,0.363,0.102
0.172,1.52,0.027
0.188,1.887,0.109
0.023,1.352,0.195
0.02,1.359,0.152
0.102,1.148,0.152
0.051,0.961,0.066
-0.004,0.949,0.059
-0.035,0.84,0.016
0.027,0.734,0.039
0.102,0.598,-0.008
0.23,0.477,0.0
0.07,0.719,0.004
0.02,1.23,-0.164
0.316,1.434,-0.121
0.188,1.535,-0.09
-0.027,1.391,-0.125
-0.246,1.199,-0.191
-0.164,0.949,-0.043
0.344,0.719,-0.051
0.113,0.523,-0.012
-0.223,-0.035,0.043
0.078,-0.066,-0.02
0.277,0.996,-0.027
0.133,2.008,0.082
-0.125,1.531,0.004
-0.184,1.301,0.266
-0.121,1.113,0.086
-0.145,1.195,0.016
0.004,1.211,-0.016
-0.195,1.016,-0.012
-0.313,0.828,0.02
0.352,0.754,0.133
0.695,1.035,0.078
0.516,1.477,-0.102
0.125,2.266,-0.105
0.152,1.559,0.016
-0.02,1.141,0.023
0.023,0.813,0.008
0.031,0.723,0.031
0.02,0.672,0.02
-0.039,0.387,-0.016
0.059,0.383,-0.098
0.098,0.758,0.051
0.195,1.574,0.016
-0.352,1.203,-0.098
-0.117,1.047,-0.359
0.469,2.063,0.223
0.395,1.141,-0.145
0.043,0.75,-0.078
0.445,0.824,0.16
0.785,1.004,0.184
0.484,0.988,0.035
0.246,0.867,0.023
0.102,0.887,0.016
-0.02,0.891,0.004
0.016,0.883,0.047
-0.004,0.906,0.043
-0.059,0.941,0.004
-0.035,0.938,0.02
-0.016,0.988,-0.008
0.051,0.969,-0.035
0.066,0.965,0.027
0.188,0.938,0.082
0.383,1.078,-0.016
0.258,1.109,-0.051
0.41,1.219,0.031
0.5,1.297,-0.008
0.328,0.961,-0.203
0.156,0.926,-0.188
0.141,1.016,-0.148
0.23,0.914,-0.09
0.191,0.805,-0.094
0.164,0.793,-0.078
0.18,0.742,-0.066
0.199,0.82,-0.066
0.188,0.941,-0.105
0.207,0.926,-0.059
0.258,0.996,-0.059
0.102,1.188,-0.074
0.102,0.941,-0.102
0.172,0.863,-0.094
0.133,0.922,-0.094
0.055,0.961,-0.086
0.059,0.957,-0.105
0.07,0.918,-0.117
0.109,0.969,-0.113
0.246,1.023,-0.113
0.422,1.008,-0.09
0.473,0.934,-0.082
0.461,0.93,-0.098
0.371,0.938,-0.09
0.23,0.992,-0.098
0.152,1.027,-0.109
0.129,0.977,-0.113
0.109,0.934,-0.129
0.066,0.953,-0.152
0.043,0.977,-0.148
0.027,0.965,-0.156
0.02,0.949,-0.176
-0.027,0.926,-0.164
-0.047,0.926,-0.176
-0.016,0.934,-0.18
-0.027,0.953,-0.184
0.07,1.004,-0.129
0.09,1.203,-0.156
0.023,1.105,-0.078
0.074,0.813,-0.152
0.254,1.02,-0.223
0.434,1.152,-0.129
0.449,1.188,-0.074
0.426,1.008,-0.047
0.484,0.797,-0.066
0.613,0.77,-0.039
0.629,0.891,0.02
0.449,0.922,0.02
0.156,0.906,-0.004
-0.113,0.941,-0.047
-0.145,0.977,-0.066
-0.078,0.98,-0.074
-0.008,0.914,-0.066
0.02,0.902,-0.043
0.113,0.902,-0.016
0.133,0.953,0.0
0.137,0.984,-0.004
0.16,0.977,-0.012
0.145,1.023,-0.004
0.109,1.105,-0.02
0.102,1.098,0.09
0.445,1.055,0.02
0.512,1.008,0.117
0.461,1.086,0.004
0.383,1.16,-0.023
0.191,1.09,-0.008
0.137,0.922,-0.023
0.117,0.832,-0.039
0.168,0.805,-0.043
0.195,0.781,-0.051
0.211,0.801,-0.09
0.188,0.754,-0.098
0.047,0.668,-0.121
-0.121,0.895,-0.168
0.008,0.875,0.0
0.301,1.094,-0.047
-0.105,1.148,-0.09
-0.129,1.246,-0.219
0.234,1.605,-0.055
0.199,1.145,-0.102
-0.012,0.785,-0.168
0.16,0.875,-0.012
0.465,0.973,0.051
0.391,0.91,0.035
0.238,0.938,-0.008
0.117,0.98,0.0
0.043,0.949,0.0
0.004,0.922,0.004
0.023,0.887,-0.008
0.063,0.875,-0.012
0.031,0.906,-0.023
0.012,0.883,0.012
-0.008,0.852,0.008
0.008,0.84,-0.004
0.055,0.828,-0.023
0.113,0.832,-0.02
0.059,0.906,0.012
-0.035,0.891,0.008
-0.121,0.84,-0.066
-0.148,0.945,0.0
-0.078,1.066,0.016
0.023,1.121,-0.031
0.352,1.348,-0.027
0.473,1.57,0.016
0.172,1.414,-0.055
-0.023,1.102,-0.148
0.023,0.949,-0.137
-0.016,1.027,-0.059
-0.039,0.855,-0.031
-0.016,0.707,0.012
0.055,0.629,0.02
0.086,0.551,-0.027
0.031,0.605,-0.027
-0.082,0.727,-0.102
-0.137,0.879,-0.156
0.086,1.086,0.012
0.109,1.277,-0.086
-0.207,1.074,-0.246
-0.012,1.578,-0.113
-0.109,1.332,0.078
0.027,1.039,-0.184
0.172,1.211,0.0
0.418,1.031,0.059
0.387,1.109,0.074
0.285,0.953,0.043
0.27,0.883,0.016
0.168,0.848,0.031
-0.004,0.863,0.023
-0.031,0.809,0.027
0.051,0.871,0.051
0.086,0.984,0.059
0.094,1.031,0.078
0.012,1.07,0.152
-0.207,1.137,0.215
-0.195,1.262,0.148
-0.031,1.234,0.039
0.168,1.082,-0.047
0.473,0.988,0.16
0.641,1.031,0.25
0.543,1.086,-0.141
0.195,1.367,-0.16
0.004,1.07,-0.063
0.039,0.855,-0.027
0.105,0.781,-0.016
0.156,0.707,-0.008
0.141,0.719,-0.035
0.109,0.719,-0.074
0.129,0.637,-0.074
0.035,0.566,-0.16
-0.148,0.762,-0.152
-0.137,0.965,-0.109
0.41,1.25,0.047
-0.289,1.602,-0.219
-0.633,1.172,-0.352
0.418,1.789,-0.121
0.895,1.395,-0.078
0.18,0.672,-0.059
0.063,0.652,-0.066
0.406,0.848,0.047
0.582,0.992,0.07
0.414,0.855,-0.004
0.234,0.824,-0.008
0.07,0.902,0.004
-0.066,0.93,-0.008
-0.035,0.883,0.004
-0.004,0.902,0.004
-0.012,0.906,0.031
0.043,0.965,0.027
0.145,0.926,0.063
0.09,0.965,0.094
-0.07,1.051,0.121
0.004,1.152,0.059
0.207,1.156,-0.086
0.188,1.176,-0.063
0.43,1.18,0.234
0.656,1.145,0.07
0.492,1.176,-0.145
0.055,1.137,-0.156
0.086,0.992,-0.125
0.125,0.777,-0.074
0.176,0.656,-0.059
0.168,0.711,-0.051
0.148,0.789,-0.07
0.09,0.75,-0.094
0.012,0.664,-0.109
-0.043,0.68,-0.152
-0.141,0.918,-0.082
-0.027,0.984,0.008
0.105,1.297,0.027
-0.426,1.332,-0.152
-0.711,1.098,-0.25
0.109,1.195,-0.273
0.891,1.441,0.027
0.855,1.195,-0.094
0.16,0.707,-0.121
0.211,0.672,-0.027
0.41,1.074,0.047
0.32,1.039,0.023
0.168,0.852,-0.012
0.105,0.84,0.004
0.059,0.977,0.043
0.039,0.949,0.031
0.008,0.977,0.031
0.008,0.957,0.023
0.023,0.914,0.023
0.027,0.898,0.051
-0.031,0.922,0.016
0.031,0.992,0.016
0.027,1.004,0.043
0.109,1.035,0.082
0.066,1.09,0.047
0.117,1.168,-0.109
0.012,1.227,-0.031
0.359,1.164,0.027
0.555,1.02,-0.055
0.344,0.824,-0.238
0.078,0.977,-0.336
0.055,1.059,-0.273
0.141,0.953,-0.191
0.145,0.797,-0.172
0.152,0.73,-0.156
0.137,0.773,-0.152
0.094,0.906,-0.18
0.055,0.922,-0.164
0.055,0.844,-0.148
0.043,0.887,-0.133
0.07,0.93,-0.082
0.07,0.91,-0.051
-0.051,0.93,-0.074
-0.082,0.988,-0.082
-0.086,1.039,-0.02
-0.156,1.082,-0.031
-0.25,1.078,-0.012
-0.324,0.973,0.008
-0.121,1.043,-0.121
0.555,1.809,0.348
0.738,1.164,0.004
0.234,0.699,-0.156
0.113,0.762,-0.027
0.344,1.109,0.078
0.445,0.996,0.094
0.332,0.809,0.008
0.254,0.859,-0.012
0.184,0.949,0.008
0.129,0.848,0.02
0.102,0.871,0.035
0.082,0.941,0.063
0.086,0.949,0.059
0.109,1.016,0.035
0.152,1.008,-0.02
0.117,0.973,0.02
0.078,0.965,0.063
0.223,1.09,0.121
0.164,1.27,0.074
0.297,1.129,0.094
0.449,0.938,0.07
0.395,0.832,-0.004
0.313,0.906,-0.035
0.254,1.031,-0.059
0.277,1.051,-0.043
0.223,0.965,-0.078
0.184,0.859,-0.086
0.227,0.848,-0.059
0.227,0.84,-0.059
0.23,0.883,-0.07
0.207,0.906,-0.082
0.203,0.918,-0.066
0.176,0.949,-0.074
0.137,0.914,-0.055
0.102,0.98,-0.027
0.117,0.938,-0.059
0.105,0.867,-0.043
0.23,0.988,0.0
0.285,1.289,-0.039
0.152,0.961,-0.031
0.113,0.848,-0.043
0.188,1.063,0.023
0.203,1.047,0.043
0.188,0.957,0.055
0.191,0.977,0.063
0.164,0.996,0.055
0.133,0.965,0.078
0.156,0.973,0.082
0.191,0.988,0.086
0.215,0.965,0.094
0.168,0.977,0.09
0.121,1.016,0.09
0.129,0.996,0.078
0.113,1.0,0.059
0.148,1.0,0.047
0.191,0.984,0.051
0.184,0.953,0.023
0.195,0.953,0.02
0.18,0.98,0.004
0.156,0.996,0.004
0.125,0.98,0.004
0.086,0.977,-0.012
0.082,0.996,0.0
0.094,0.996,-0.012
0.125,0.984,0.0
0.164,0.961,0.004
0.191,0.941,0.0
0.191,0.961,0.012
0.168,0.988,0.012
0.152,0.961,0.008
0.125,0.98,0.004
0.125,0.984,0.004
0.145,0.98,0.016
0.156,0.988,0.02
0.148,0.98,0.02
0.156,0.973,0.023
0.164,0.98,0.023
0.168,0.977,0.023
0.145,0.988,0.012
0.152,0.98,0.008
0.145,0.984,0.0
0.148,0.984,0.008
0.148,0.977,-0.008
0.152,0.969,-0.004
0.152,0.98,-0.004
0.156,0.98,-0.004
0.152,0.969,-0.012
0.16,0.977,0.004
0.16,0.984,-0.004
0.16,0.984,0.0
0.148,0.969,0.0
0.156,0.984,-0.012
0.164,0.996,-0.012
0.164,0.98,-0.016
0.168,0.965,-0.012
0.164,0.98,-0.016
0.172,0.969,-0.008
0.16,0.965,-0.008
0.133,0.977,0.012
0.121,1.0,0.004
0.137,0.984,0.0
0.168,0.969,0.0
0.191,0.965,-0.008
0.191,0.969,-0.012
0.188,0.973,-0.016
0.156,0.98,-0.02
0.148,0.98,-0.023
0.152,0.98,-0.02
0.152,0.977,-0.02
0.148,0.977,-0.02
0.133,0.98,-0.02
0.137,0.984,-0.023
0.133,0.977,-0.027
0.129,0.977,-0.02
0.133,0.984,-0.016
0.145,0.98,-0.016
0.152,0.973,-0.012
0.16,0.98,-0.012
0.156,0.973,-0.012
0.156,0.973,-0.012
0.156,0.977,-0.012
0.156,0.969,-0.012
0.148,0.992,-0.016
0.145,0.98,-0.02
0.148,0.977,-0.02
0.156,0.977,-0.023
0.148,0.98,-0.023
0.148,0.98,-0.023
0.148,0.98,-0.023
0.152,0.984,-0.023
0.148,0.984,-0.023
0.156,0.973,-0.02
0.16,0.973,-0.02
0.152,0.977,-0.027
0.156,0.98,-0.016
0.16,0.965,-0.02
0.16,0.977,-0.023
0.168,0.984,-0.02
0.156,0.98,-0.016
0.148,0.984,-0.012
0.125,0.969,-0.012
0.109,0.996,-0.016
0.117,0.98,-0.012
0.141,0.984,-0.012
0.16,0.969,-0.012
0.176,0.969,-0.016
0.168,0.984,-0.012
0.164,0.98,-0.012
0.145,0.969,-0.016
0.148,0.98,-0.012
0.145,0.973,-0.016
0.145,0.984,-0.012
0.148,0.992,-0.012
0.145,0.98,-0.016
0.145,0.973,-0.012
0.156,0.98,-0.016
0.156,0.98,-0.012
0.152,0.973,-0.016
0.145,0.98,-0.008
0.145,0.973,-0.012
0.156,0.98,-0.004
0.164,0.98,-0.012
0.16,0.98,-0.008
0.152,0.977,-0.008
0.156,0.988,-0.008
0.16,0.973,-0.012
0.16,0.98,-0.012
0.16,0.977,-0.012
0.156,0.98,-0.016
0.164,0.977,-0.012
0.16,0.98,-0.016
0.16,0.98,-0.012
0.168,0.965,-0.016
0.152,0.98,-0.012
0.156,0.98,-0.012
0.16,0.98,-0.016
0.172,0.965,-0.004
0.172,0.977,-0.016
0.164,0.973,-0.012
0.164,0.977,-0.016
0.16,0.977,-0.016
0.16,0.977,-0.02
0.16,0.977,-0.016
0.152,0.977,-0.016
0.141,0.98,-0.012
0.133,0.969,-0.012
0.141,0.988,-0.02
0.16,0.984,-0.016
0.172,0.969,-0.02
0.172,0.969,-0.016
0.168,0.98,-0.016
0.16,0.98,-0.02
0.145,0.98,-0.02
0.141,0.984,-0.023
0.152,0.969,-0.02
0.152,0.98,-0.02
0.156,0.98,-0.023
0.16,0.996,-0.016
0.168,0.973,-0.016
0.16,0.969,-0.012
0.152,0.973,-0.012
0.148,0.988,-0.012
0.156,0.973,-0.02
0.16,0.98,-0.016
0.152,0.977,-0.016
0.16,0.977,-0.02
0.156,0.984,-0.012
0.16,0.969,-0.016
0.16,0.969,-0.012
0.164,0.984,-0.016
0.164,0.969,-0.02
0.164,0.969,-0.016
0.16,0.992,-0.016
0.152,0.988,-0.016
0.16,0.977,-0.012
0.16,0.984,-0.02
0.164,0.977,-0.016
0.164,0.973,-0.016
0.16,0.98,-0.016
0.16,0.969,-0.016
0.164,0.969,-0.012
0.148,0.988,-0.008
0.141,0.988,-0.012
0.129,0.977,-0.004
0.137,0.984,-0.008
0.152,0.984,-0.012
0.184,0.965,-0.008
0.188,0.977,-0.016
0.168,0.984,-0.02
0.152,0.98,-0.016
0.148,0.98,-0.02
0.137,0.984,-0.016
0.137,0.977,-0.016
0.145,0.98,-0.012
0.156,0.977,-0.016
0.168,0.973,-0.012
0.164,0.977,-0.012
0.172,0.977,-0.008
0.164,0.973,-0.012
0.156,0.977,-0.004
0.152,0.98,-0.008
0.148,0.977,-0.012
0.152,0.984,-0.012
0.156,0.984,-0.008
0.156,0.984,-0.02
0.16,0.965,-0.012
0.152,0.977,-0.016
0.148,0.984,-0.02
0.148,0.973,-0.016
0.145,0.973,-0.016
0.16,0.988,-0.016
0.164,0.969,-0.016
0.16,0.977,-0.016
0.164,0.973,-0.012
0.164,0.98,-0.012
0.156,0.977,-0.008
0.16,0.973,-0.012
0.168,0.992,-0.012
0.164,0.977,-0.008
0.168,0.977,-0.016
0.164,0.977,-0.012
0.16,0.977,-0.004
0.133,0.98,-0.012
0.121,0.984,-0.008
0.109,0.996,-0.008
0.125,0.973,-0.012
0.156,0.98,-0.012
0.172,0.973,-0.012
0.16,0.984,-0.016
0.16,0.973,-0.012
0.145,0.98,-0.012
0.148,0.98,-0.016
0.148,0.984,-0.012
0.141,0.98,-0.012
0.141,0.984,-0.012
0.156,0.977,-0.012
0.16,0.984,-0.008
0.152,0.98,-0.012
0.156,0.98,-0.008
0.16,0.973,-0.012
0.152,0.988,-0.012
0.156,0.977,-0.008
0.141,0.977,-0.012
0.145,0.98,-0.008
0.145,0.98,-0.012
0.141,0.969,-0.016
0.141,0.973,-0.016
0.148,0.988,-0.016
0.148,0.973,-0.016
0.148,0.98,-0.02
0.16,0.973,-0.016
0.156,0.984,-0.016
0.148,0.98,-0.016
0.148,0.98,-0.02
0.156,0.977,-0.016
0.152,0.977,-0.012
0.156,0.973,-0.02
0.156,0.98,-0.016
0.145,0.977,-0.016
0.133,0.98,-0.012
0.129,0.992,-0.012
0.141,0.977,-0.008
0.156,0.984,-0.016
0.156,0.984,-0.012
0.176,0.973,-0.012
0.16,0.98,-0.016
0.152,0.973,-0.012
0.148,0.98,-0.016
0.141,0.977,-0.016
0.137,0.988,-0.016
0.141,0.98,-0.016
0.156,0.98,-0.012
0.16,0.98,-0.008
0.156,0.973,-0.012
0.16,0.977,-0.008
0.16,0.984,-0.008
0.164,0.98,-0.012
0.168,0.98,-0.012
0.16,0.977,-0.012
0.16,0.984,-0.004
0.164,0.969,-0.008
0.148,0.977,-0.004
0.145,0.98,-0.008
0.148,0.98,-0.012
0.16,0.984,-0.008
0.156,0.973,-0.012
0.16,0.973,-0.016
0.16,0.977,-0.016
0.16,0.973,-0.016
0.148,0.984,-0.016
0.156,0.969,-0.016
0.152,0.977,-0.016
0.156,0.988,-0.012
0.156,0.98,-0.016
0.156,0.973,-0.016
0.16,0.98,-0.02
0.16,0.973,-0.012
0.16,0.973,-0.016
0.156,0.98,-0.012
0.145,0.984,-0.008
0.129,0.988,-0.008
0.133,0.969,0.0
0.148,0.977,-0.012
0.168,0.988,-0.012
0.184,0.969,-0.012
0.164,0.973,-0.012
0.164,0.973,-0.012
0.148,0.984,-0.023
0.152,0.973,-0.027
0.176,0.984,-0.039
0.195,0.98,-0.02
0.152,0.973,-0.012
0.094,0.961,-0.016
0.086,0.988,-0.012
0.117,0.988,-0.008
0.145,0.977,-0.012
0.148,0.98,-0.004
0.16,0.965,-0.008
0.176,0.98,-0.008
0.188,0.984,-0.016
0.199,0.973,-0.008
0.18,0.965,-0.012
0.16,0.988,-0.012
0.145,0.98,-0.008
0.148,0.973,-0.012
0.148,0.984,-0.012
0.156,0.977,-0.012
0.156,0.977,-0.012
0.164,0.977,-0.012
0.164,0.977,-0.012
0.164,0.973,-0.012
0.164,0.973,-0.016
0.164,0.977,-0.016
0.148,0.977,-0.016
0.152,0.977,-0.016
0.152,0.973,-0.016
0.148,0.98,-0.016
0.168,0.98,-0.02
0.172,0.984,-0.02
0.172,0.969,-0.016
0.164,0.969,-0.012
0.152,0.977,-0.012
0.145,0.98,-0.012
0.129,0.98,-0.008
0.141,0.98,-0.012
0.164,0.98,-0.016
0.191,0.965,-0.012
0.184,0.973,-0.016
0.168,0.977,-0.016
0.16,0.973,-0.016
0.148,0.973,-0.016
0.148,0.973,-0.016
0.156,0.984,-0.02
0.156,0.969,-0.016
0.164,0.973,-0.012
0.164,0.969,-0.012
0.168,0.973,-0.012
0.168,0.98,-0.012
0.164,0.973,-0.008
0.148,0.992,-0.008
0.16,0.973,-0.012
0.16,0.973,-0.012
0.156,0.98,-0.008
0.16,0.98,-0.012
0.16,0.977,-0.012
0.168,0.977,-0.008
0.16,0.973,-0.008
0.16,0.988,-0.012
0.16,0.98,-0.012
0.164,0.98,-0.012
0.164,0.969,-0.008
0.16,0.98,-0.012
0.16,0.973,-0.012
0.16,0.977,-0.012
0.16,0.973,-0.012
0.156,0.988,-0.008
0.156,0.969,-0.004
0.125,0.973,0.004
0.098,0.996,0.0
0.137,0.992,-0.008
0.18,0.965,-0.004
0.199,0.965,-0.008
0.176,0.984,-0.012
0.164,0.977,-0.004
0.145,0.977,-0.012
0.145,0.984,-0.016
0.172,0.961,0.0
0.172,0.977,-0.008
0.18,0.961,-0.004
0.188,0.973,0.008
0.203,0.984,-0.004
0.227,0.938,-0.008
0.203,0.938,0.016
0.168,0.988,0.016
0.148,0.996,-0.012
0.184,0.98,0.039
0.25,0.973,-0.023
0.301,0.945,-0.031
0.367,0.914,0.0
0.355,0.938,0.023
0.387,0.836,0.0
0.398,0.801,0.07
0.211,0.754,-0.008
0.141,0.719,0.02
0.109,0.613,0.008
0.07,0.555,-0.008
-0.043,0.668,-0.047
-0.086,0.797,-0.129
-0.016,0.984,-0.273
0.246,1.063,-0.27
0.375,1.184,-0.332
0.523,1.324,-0.344
0.512,1.539,-0.336
0.348,1.809,-0.355
0.191,2.148,-0.391
0.297,2.695,-0.43
0.184,2.801,-0.336
0.551,2.496,-0.199
0.84,1.246,-0.008
0.434,0.262,0.145
0.848,-0.539,0.219
0.102,-0.543,-0.086
-0.113,-0.23,-0.094
-0.121,0.191,-0.059
0.035,0.207,0.02
0.023,0.047,0.031
0.086,-0.059,0.016
0.07,-0.105,0.039
0.063,-0.109,-0.008
0.035,-0.07,-0.004
0.023,-0.008,0.043
-0.023,0.059,0.008
0.266,0.25,0.184
1.16,3.816,0.254
0.785,4.965,0.27
-0.582,2.281,-0.219
-0.168,1.676,-0.105
0.219,1.379,-0.031
0.355,1.32,-0.09
0.316,0.703,-0.023
0.191,0.559,-0.023
0.086,0.543,-0.008
0.004,0.957,-0.043
0.047,1.02,0.02
0.09,0.898,0.016
0.215,1.074,-0.004
0.25,1.059,0.023
0.203,0.898,0.016
0.156,0.902,0.016
0.152,0.934,0.004
0.25,0.918,0.0
0.293,0.855,0.0
0.266,0.832,-0.008
0.27,0.789,-0.035
0.266,0.738,-0.02
0.211,0.742,0.039
0.172,0.707,0.059
0.117,0.711,-0.023
0.09,0.609,0.039
0.066,0.508,-0.09
0.074,0.742,-0.113
0.152,1.07,-0.133
0.207,1.254,-0.242
0.352,1.293,-0.254
0.332,1.371,-0.32
0.355,1.824,-0.367
0.223,2.246,-0.336
-0.004,2.551,-0.402
0.121,2.668,-0.34
0.465,2.574,-0.379
0.793,1.859,-0.066
0.602,0.73,0.016
0.148,-0.039,0.094
0.52,-0.605,0.102
-0.055,-0.434,-0.055
-0.078,-0.141,-0.051
0.008,0.277,-0.059
0.039,0.195,-0.004
-0.004,0.027,-0.02
0.043,-0.055,0.012
0.016,-0.063,-0.023
0.004,-0.078,0.027
0.027,-0.047,0.047
-0.02,0.031,0.086
0.145,0.195,0.078
0.984,2.777,-0.117
1.715,5.703,-0.047
-0.387,2.367,-0.238
-0.086,1.863,-0.141
0.148,1.367,-0.094
0.355,1.219,0.059
0.34,0.766,0.055
0.07,0.441,-0.027
-0.055,0.27,-0.082
0.125,0.539,-0.074
0.324,1.133,0.008
0.23,1.285,-0.004
0.195,0.996,-0.004
0.184,0.887,-0.039
0.133,1.008,-0.027
0.207,1.051,-0.023
0.293,0.949,0.004
0.316,0.84,0.031
0.336,0.758,0.027
0.207,0.742,0.0
0.199,0.625,0.031
0.043,0.551,-0.016
0.039,0.602,0.008
-0.078,0.738,-0.035
-0.063,0.793,-0.055
0.082,0.742,-0.07
0.246,1.094,-0.18
0.352,1.168,-0.078
0.293,1.602,-0.172
0.355,1.898,-0.164
0.168,2.063,-0.172
-0.258,2.645,-0.301
-0.09,2.902,-0.277
0.379,2.813,-0.207
0.785,2.035,-0.102
0.668,0.758,0.02
0.621,-0.207,0.0
0.219,-0.578,0.059
-0.336,-0.445,-0.133
-0.23,0.082,-0.137
0.039,0.281,-0.02
0.207,0.176,0.031
0.102,-0.023,-0.016
-0.012,-0.117,0.004
-0.066,-0.086,-0.047
-0.004,-0.066,-0.004
0.039,-0.039,0.047
0.098,0.02,0.027
0.07,-0.008,0.176
0.242,0.359,-0.238
0.492,3.902,0.207
0.418,4.598,-0.238
-0.066,2.449,0.02
-0.16,1.793,-0.133
0.082,1.105,-0.023
0.258,0.809,0.07
0.242,0.449,0.035
0.172,0.324,0.078
0.191,0.598,0.059
0.156,1.121,-0.004
0.043,1.145,-0.012
-0.043,0.98,-0.012
-0.008,0.98,0.02
0.035,0.973,0.0
0.105,0.977,-0.047
0.246,0.996,-0.008
0.348,1.004,0.027
0.367,0.996,-0.051
0.367,0.98,-0.004
0.367,1.023,-0.039
0.473,1.059,-0.082
0.68,0.918,0.055
0.332,0.898,-0.113
0.328,0.816,-0.094
0.336,0.805,-0.031
0.219,0.855,-0.082
-0.063,0.77,-0.035
-0.172,0.836,-0.105
0.051,0.938,-0.012
0.418,0.934,-0.043
0.492,0.969,0.008
0.348,1.004,0.137
0.293,0.969,0.105
0.352,1.0,0.086
0.379,0.91,0.129
0.316,0.859,0.117
0.348,0.945,0.063
0.406,0.867,0.063
0.355,0.809,0.031
0.309,0.949,0.059
0.344,0.879,0.066
0.191,0.781,-0.047
0.238,1.188,0.027
0.449,1.121,0.035
0.344,1.008,-0.027
0.211,1.0,0.008
0.258,0.895,0.012
0.277,0.902,0.02
0.25,0.914,0.02
0.227,0.922,0.023
0.254,0.977,0.016
0.195,1.012,0.004
0.148,0.996,-0.004
0.168,0.945,-0.004
0.199,0.977,0.004
0.191,0.969,0.008
0.191,0.98,0.004
0.199,1.0,-0.012
0.195,0.98,0.0
0.199,0.965,-0.004
0.195,0.965,0.0
0.195,0.961,-0.008
0.18,0.961,0.012
0.152,1.004,0.012
0.145,0.988,0.023
0.141,0.977,0.023
0.16,0.965,0.031
0.168,0.973,0.027
0.195,0.973,0.02
0.199,0.965,0.02
0.207,0.98,0.023
0.199,0.969,0.023
0.188,0.988,0.012
0.176,0.973,0.02
0.168,0.973,0.031
0.141,0.965,0.031
0.098,0.984,0.035
0.063,1.008,0.043
0.094,1.016,0.02
0.168,0.953,0.023
0.203,0.949,0.012
0.199,0.969,0.012
0.156,1.008,0.012
0.133,0.996,0.016
0.121,0.973,0.016
0.133,0.965,0.016
0.145,0.98,0.016
0.141,0.988,0.023
0.152,0.988,0.016
0.152,0.973,0.02
0.152,0.992,0.016
0.145,0.977,0.02
0.133,0.977,0.016
0.133,0.977,0.012
0.129,0.988,0.008
0.141,0.969,0.004
0.145,0.98,0.012
0.145,0.984,0.0
0.148,0.973,0.0
0.137,0.988,0.004
0.141,0.977,-0.004
0.141,0.969,0.0
0.133,0.992,0.004
0.141,0.977,0.0
0.137,0.973,0.008
0.137,0.969,0.008
0.145,0.98,0.02
0.148,0.992,0.012
0.156,0.965,0.012
0.156,0.969,0.008
0.156,0.98,0.008
0.145,0.977,0.012
0.129,0.988,0.02
0.121,0.984,0.016
0.109,0.984,0.012
0.121,0.984,0.016
0.168,0.973,0.016
0.176,0.98,0.0
0.164,0.973,0.004
0.137,0.988,0.004
0.133,0.98,0.004
0.125,0.984,0.004
0.129,0.98,0.012
0.148,0.98,0.008
0.156,0.973,0.012
0.156,0.977,0.016
0.148,0.973,0.016
0.145,0.984,0.008
0.148,0.969,0.016
0.133,0.984,0.016
0.133,0.988,0.004
0.137,0.984,0.0
0.148,0.977,0.012
0.137,0.977,0.0
0.137,0.984,0.0
0.145,0.98,0.0
0.133,0.977,-0.004
0.137,0.98,-0.008
0.137,0.984,-0.004
0.145,0.984,-0.012
0.148,0.969,-0.012
0.145,0.984,-0.004
0.137,0.973,-0.004
0.125,0.988,-0.004
0.117,0.98,-0.008
0.102,0.992,-0.008
0.121,0.984,-0.008
0.125,0.988,-0.008
0.113,0.973,-0.004
0.113,0.984,-0.008
0.094,0.988,0.004
0.09,0.98,-0.004
0.09,0.98,-0.004
0.082,0.992,-0.004
0.098,0.988,-0.012
0.125,0.984,-0.012
0.145,0.973,-0.012
0.141,0.977,-0.004
0.109,0.992,-0.008
0.109,0.992,-0.012
0.105,0.984,-0.004
0.117,0.984,-0.004
0.125,0.988,-0.012
0.129,0.988,-0.012
0.129,0.973,-0.004
0.133,0.984,-0.004
0.137,0.984,0.004
0.129,0.996,-0.004
0.125,0.988,0.0
0.133,0.988,0.004
0.129,0.969,0.0
0.125,0.977,-0.012
0.121,0.98,-0.004
0.133,0.977,-0.008
0.145,0.98,0.0
0.145,0.973,-0.008
0.148,0.98,-0.004
0.145,0.984,-0.004
0.133,0.988,0.0
0.137,0.984,-0.012
0.141,0.973,-0.004
0.141,0.977,-0.008
0.141,0.984,0.008
0.145,0.984,0.004
0.145,0.984,0.0
0.148,0.988,-0.008
0.145,0.973,0.0
0.141,0.977,-0.008
0.148,0.988,-0.008
0.148,0.973,-0.004
0.129,0.984,0.0
0.129,0.984,-0.008
0.133,0.984,0.0
0.125,0.984,-0.008
0.145,0.973,0.0
0.156,0.977,-0.008
0.16,0.973,-0.008
0.145,0.98,-0.008
0.137,0.992,-0.004
0.145,0.984,0.0
0.152,0.973,-0.004
0.145,0.977,0.0
0.152,0.988,-0.004
0.145,0.973,-0.008
0.148,0.988,-0.004
0.141,0.98,-0.004
0.141,0.984,-0.004
0.145,0.98,-0.004
0.133,0.98,-0.008
0.125,0.984,0.0
0.137,0.98,0.0
0.129,0.98,-0.008
0.129,0.988,-0.008
0.129,0.973,-0.012
0.129,0.988,-0.008
0.148,0.988,-0.008
0.16,0.969,-0.004
0.145,0.98,-0.012
0.129,0.984,-0.008
0.137,0.984,-0.012
0.125,0.984,-0.008
0.129,0.977,0.0
0.129,0.988,-0.004
0.133,0.988,-0.004
0.137,0.969,0.0
0.133,0.984,0.0
0.145,0.984,0.004
0.145,0.984,-0.004
0.129,0.969,0.008
0.125,0.988,0.008
0.117,0.988,-0.004
0.117,0.98,0.0
0.121,0.98,0.0
0.137,0.984,-0.008
0.152,0.98,0.0
0.148,0.969,-0.004
0.129,0.984,-0.008
0.129,0.988,-0.008
0.141,0.98,0.0
0.141,0.973,0.0
0.141,0.984,-0.004
0.137,0.984,0.004
0.141,0.98,0.0
0.133,0.977,0.004
0.141,0.984,-0.004
0.145,0.977,0.004
0.137,0.977,0.0
0.129,0.988,0.004
0.141,0.977,0.0
0.137,0.98,-0.004
0.129,0.98,0.0
0.129,0.973,0.0
0.133,0.992,0.0
0.129,0.98,-0.004
0.125,0.973,-0.004
0.125,0.98,0.0
0.125,0.984,0.0
0.133,0.98,-0.004
0.148,0.988,0.0
0.141,0.973,0.0
0.133,0.988,0.004
0.133,0.988,0.0
0.129,0.984,0.0
0.125,0.988,0.0
0.133,0.98,-0.008
0.133,0.98,0.004
0.137,0.98,0.0
0.137,0.984,0.0
0.129,0.988,0.004
0.133,0.973,0.004
0.145,0.984,0.012
0.137,0.98,0.004
0.148,0.977,0.008
0.148,0.98,0.008
0.141,0.98,0.012
0.137,0.977,0.012
0.117,0.984,0.012
0.117,0.992,0.004
0.129,0.969,0.008
0.133,0.98,-0.004
0.156,0.984,0.0
0.164,0.969,-0.004
0.152,0.992,0.0
0.137,0.98,0.0
0.125,0.984,0.004
0.125,0.977,0.004
0.129,0.984,0.008
0.133,0.977,0.0
0.145,0.977,0.004
0.141,0.984,0.008
0.137,0.977,0.008
0.129,0.98,0.012
0.129,0.988,0.0
0.133,0.977,0.004
0.137,0.988,0.004
0.129,0.98,0.004
0.133,0.98,0.0
0.141,0.992,0.004
0.137,0.988,0.0
0.125,0.977,0.012
0.125,0.98,0.004
0.129,0.984,0.012
0.121,0.984,0.008
0.129,0.984,0.016
0.129,0.98,0.004
0.129,0.98,0.004
0.129,0.977,0.0
0.137,0.984,-0.004
0.145,0.98,-0.004
0.141,0.98,0.004
0.133,0.977,0.004
0.129,0.977,-0.004
0.125,0.996,0.004
0.129,0.973,0.004
0.129,0.977,0.004
0.137,0.984,0.016
0.137,0.98,0.008
0.129,0.98,0.012
0.129,0.984,0.016
0.133,0.984,0.008
0.137,0.984,0.012
0.129,0.977,0.012
0.121,0.992,0.016
0.117,0.992,0.012
0.121,0.973,0.016
0.121,0.984,0.012
0.141,0.984,0.004
0.145,0.984,0.008
0.137,0.984,0.004
0.129,0.988,0.008
0.133,0.973,0.004
0.133,0.98,0.004
0.133,0.977,0.004
0.133,0.98,0.004
0.145,0.984,0.016
0.133,0.988,0.0
0.133,0.973,0.012
0.133,0.984,0.012
0.137,0.98,0.016
0.125,0.98,0.012
0.133,0.984,0.012
0.148,0.977,0.02
0.152,0.988,0.008
0.152,0.969,0.012
0.141,0.988,0.004
0.121,0.992,0.0
0.117,0.965,0.0
0.121,0.988,0.004
0.102,0.984,0.012
0.102,0.988,-0.004
0.102,0.98,0.008
0.117,0.988,0.0
0.141,0.969,0.008
0.156,0.98,0.012
0.148,0.984,0.008
0.145,0.973,0.004
0.129,0.988,0.004
0.129,0.988,0.0
0.117,0.984,0.0
0.125,0.973,0.008
0.133,0.98,0.004
0.141,0.984,0.008
0.145,0.977,0.008
0.145,0.977,0.012
0.145,0.984,0.004
0.141,0.984,0.004
0.141,0.977,0.004
0.137,0.977,0.012
0.109,0.988,0.016
0.113,0.988,0.012
0.117,0.977,0.012
0.121,0.969,0.012
0.145,0.996,0.004
0.152,0.988,0.0
0.137,0.977,0.004
0.125,0.969,0.008
0.125,0.984,0.004
0.125,0.98,0.012
0.129,0.98,0.016
0.133,0.98,0.008
0.141,0.969,0.012
0.129,0.988,0.012
0.133,0.98,0.008
0.133,0.984,0.008
0.133,0.98,0.004
0.129,0.988,0.008
0.129,0.98,0.0
0.129,0.988,0.0
0.141,0.984,0.0
0.125,0.984,0.004
0.133,0.988,0.0
0.141,0.98,0.004
0.129,0.977,0.008
0.133,0.977,0.012
0.129,0.98,0.012
0.133,0.977,0.012
0.129,0.984,0.012
0.121,0.98,0.008
0.121,0.988,0.016
0.129,0.98,0.012
0.133,0.984,0.004
0.145,0.98,0.012
0.148,0.984,0.0
0.145,0.977,0.004
0.133,0.988,-0.008
0.121,0.988,0.0
0.117,0.988,0.0
0.121,0.977,0.0
0.125,0.988,0.0
0.145,0.973,0.0
0.148,0.984,0.012
0.152,0.977,0.012
0.145,0.984,0.008
0.133,0.984,0.008
0.141,0.977,0.016
0.137,0.973,0.02
0.117,0.988,0.02
0.105,0.992,0.012
0.113,0.984,0.004
0.141,0.98,0.004
0.168,0.973,0.0
0.16,0.973,0.012
0.137,0.988,0.008
0.121,0.984,0.004
0.113,0.984,0.004
0.133,0.973,0.008
0.133,0.98,0.012
0.145,0.984,0.016
0.152,0.984,0.012
0.145,0.977,0.004
0.141,0.98,0.008
0.137,0.977,0.004
0.145,1.0,0.016
0.141,0.977,0.016
0.129,0.977,0.012
0.117,0.992,0.012
0.117,0.984,0.016
0.113,0.977,0.012
0.117,0.988,0.004
0.148,0.98,0.004
0.16,0.969,0.004
0.156,0.973,0.004
0.137,0.984,0.0
0.117,0.992,0.012
0.109,0.977,0.004
0.109,0.984,0.008
0.125,0.984,0.012
0.129,0.988,0.004
0.145,0.98,0.004
0.145,0.98,0.004
0.125,0.988,0.008
0.125,0.984,0.004
0.129,0.98,0.008
0.133,0.984,0.012
0.125,0.973,0.016
0.125,0.988,0.0
0.137,0.977,0.012
0.137,0.977,0.016
0.152,0.977,0.016
0.152,0.973,0.012
0.117,0.984,0.012
0.09,0.992,0.004
0.117,0.992,0.004
0.152,0.969,0.0
0.164,0.965,0.0
0.141,0.98,0.0
0.125,0.988,0.0
0.125,0.977,0.004
0.125,0.988,0.012
0.148,0.973,0.008
0.156,0.969,0.004
0.145,0.965,0.0
0.129,0.969,-0.004
0.09,0.965,-0.004
0.094,0.977,-0.008
0.09,0.988,-0.008
0.098,0.953,-0.008
0.156,0.961,-0.012
0.176,0.953,-0.035
0.148,0.949,-0.027
0.125,0.945,0.008
0.105,1.004,0.055
0.055,0.953,0.102
0.043,0.926,0.102
0.027,1.043,0.129
0.074,1.012,0.148
0.133,1.016,0.164
0.094,1.043,0.16
0.086,0.969,0.129
0.051,0.941,0.105
0.02,0.93,0.102
0.027,0.922,0.109
0.07,0.945,0.133
0.121,0.957,0.133
0.082,1.004,0.172
0.023,1.039,0.184
0.012,1.066,0.211
0.016,1.098,0.211
-0.039,1.156,0.207
0.035,1.203,0.25
0.031,1.277,0.18
0.27,1.191,0.191
0.402,0.953,0.254
0.438,0.895,0.086
0.355,0.992,-0.035
0.207,1.145,0.094
0.164,0.992,0.152
0.172,0.734,0.07
0.102,0.699,-0.027
0.035,0.641,-0.07
0.023,0.668,-0.09
-0.004,0.668,-0.172
-0.059,0.617,-0.156
-0.234,0.723,-0.164
-0.051,1.07,-0.004
0.215,1.848,-0.086
-0.531,1.438,-0.23
-0.371,0.805,-0.426
0.883,1.883,0.105
0.773,0.863,-0.012
0.148,0.766,-0.113
0.25,1.066,0.0
0.473,0.977,0.012
0.297,0.863,-0.063
0.141,0.77,-0.027
0.023,0.758,0.027
0.031,0.645,0.059
0.086,0.543,0.066
0.199,0.746,0.09
0.223,1.012,-0.004
0.102,1.184,-0.012
-0.363,1.141,0.109
-0.477,1.176,-0.004
0.332,1.352,0.059
0.703,1.02,0.145
0.559,1.262,0.336
0.543,1.656,-0.012
0.32,1.574,-0.016
0.063,1.02,-0.016
0.0,0.563,0.039
0.07,0.461,0.078
0.117,0.379,-0.035
0.066,0.473,-0.059
-0.105,0.434,-0.16
-0.195,0.559,-0.285
-0.16,0.969,-0.031
0.207,1.805,0.0
-0.266,1.766,-0.289
0.406,1.789,-0.105
0.445,1.277,0.035
0.289,0.453,-0.156
0.23,0.949,0.023
0.484,1.207,0.07
0.371,0.945,-0.035
0.211,0.711,-0.07
0.121,0.684,-0.039
0.012,0.613,-0.043
-0.027,0.602,0.004
0.035,0.652,0.086
0.266,0.879,0.129
0.227,1.09,0.074
-0.145,1.059,0.102
-0.59,1.043,0.156
0.105,1.398,0.219
0.773,1.383,0.004
0.719,1.188,0.504
0.633,1.441,0.02
0.422,1.402,-0.055
0.137,1.266,-0.004
0.035,0.73,0.027
0.031,0.484,0.047
0.074,0.387,-0.035
0.129,0.398,-0.055
0.152,0.5,-0.066
-0.008,0.551,-0.145
-0.223,0.73,-0.273
-0.148,1.035,0.004
0.145,1.949,-0.02
-0.457,1.641,-0.211
-0.559,0.746,-0.367
1.094,1.852,0.086
1.031,1.133,0.066
0.238,1.004,-0.125
0.297,1.023,0.0
0.426,0.816,-0.031
0.102,0.684,-0.078
-0.063,0.664,-0.063
-0.188,0.598,0.047
-0.082,0.441,0.074
0.055,0.594,0.105
0.203,1.031,-0.008
0.328,1.133,-0.043
-0.148,1.188,0.063
-0.66,1.133,0.082
0.332,1.301,0.199
0.898,1.293,0.094
0.656,1.344,0.348
0.637,1.727,-0.031
0.398,1.527,0.027
0.078,0.965,0.02
0.059,0.434,0.055
0.141,0.277,-0.016
0.152,0.203,-0.215
-0.125,0.309,-0.098
-0.414,0.371,-0.125
-0.5,0.75,-0.258
-0.148,1.32,0.215
0.34,2.559,0.109
-0.641,1.258,-0.102
0.184,1.156,-0.414
1.059,1.609,0.105
0.625,0.707,-0.164
0.262,0.84,-0.109
0.52,0.891,0.059
0.402,0.805,0.008
0.18,0.652,-0.035
0.074,0.68,-0.035
0.012,0.742,-0.016
-0.121,0.703,0.039
-0.137,0.762,0.039
0.012,0.926,0.0
0.137,1.148,0.004
-0.23,1.008,0.148
-0.195,1.242,0.113
0.613,1.547,-0.07
0.656,1.238,0.434
0.57,1.52,0.0
0.414,1.492,-0.098
0.246,1.309,0.027
0.16,0.719,-0.051
0.137,0.414,-0.004
0.008,0.289,-0.031
0.012,0.25,-0.043
0.063,0.43,-0.086
-0.051,0.637,-0.176
-0.281,0.977,-0.242
-0.02,1.074,0.051
0.227,2.504,-0.113
-0.301,0.887,-0.086
0.977,2.109,0.016
0.695,0.82,-0.074
0.219,0.746,-0.07
0.156,1.059,-0.023
0.352,0.98,0.004
0.27,0.805,-0.043
0.313,0.594,-0.055
0.156,0.523,-0.023
0.004,0.617,0.004
-0.207,0.824,0.055
-0.145,0.82,0.074
0.25,0.941,0.094
0.109,1.098,0.008
-0.422,1.039,0.109
0.016,1.277,0.117
0.52,1.273,-0.051
0.594,1.371,0.359
0.563,1.676,0.066
0.512,1.543,-0.004
0.289,1.176,-0.012
0.133,0.789,0.043
0.199,0.488,0.102
0.191,0.391,0.051
0.109,0.406,-0.02
0.105,0.527,0.0
0.047,0.418,-0.121
0.012,0.387,-0.168
-0.047,0.82,-0.172
0.133,1.66,0.02
-0.156,2.043,-0.293
-0.438,1.191,-0.352
0.699,2.184,0.051
0.551,0.703,-0.051
0.281,0.598,-0.117
0.289,0.898,0.039
0.465,1.156,0.047
0.395,0.938,-0.031
0.297,0.789,-0.039
0.184,0.777,0.0
0.066,0.77,-0.055
-0.012,0.691,-0.039
-0.109,0.668,0.008
-0.117,0.723,0.055
0.094,0.805,0.074
0.301,1.027,0.043
-0.016,0.969,0.07
-0.348,1.109,0.059
0.012,1.32,0.16
0.293,1.402,-0.066
0.555,1.043,0.125
0.586,1.297,0.281
0.578,1.48,-0.035
0.242,1.469,-0.031
0.063,1.055,-0.012
0.023,0.746,0.07
0.105,0.598,0.086
0.191,0.508,0.016
0.188,0.57,-0.016
0.164,0.605,-0.023
0.063,0.434,-0.055
-0.02,0.484,-0.129
-0.059,0.816,-0.168
0.148,1.535,0.055
-0.234,1.996,-0.258
-0.465,1.156,-0.289
0.781,2.188,-0.012
0.688,0.91,0.059
0.191,0.461,-0.164
0.152,0.828,-0.023
0.543,1.141,0.094
0.488,0.961,-0.039
0.324,0.813,-0.031
0.176,0.832,0.008
0.031,0.801,0.012
-0.02,0.715,0.0
-0.09,0.695,0.039
-0.086,0.789,0.051
0.023,0.914,0.063
0.188,0.961,-0.004
-0.016,0.973,0.07
-0.207,1.195,0.066
0.203,1.422,0.129
0.16,1.348,-0.074
0.469,1.063,0.246
0.676,1.145,0.258
0.504,1.246,-0.02
0.23,1.328,-0.105
0.164,1.086,0.063
0.113,0.777,0.031
0.09,0.613,0.055
0.16,0.605,-0.023
0.188,0.625,-0.023
0.105,0.68,-0.074
0.063,0.516,-0.113
-0.145,0.602,-0.211
-0.219,0.723,-0.188
0.059,1.109,-0.074
0.047,2.078,-0.262
-0.352,1.195,-0.328
0.703,2.004,-0.066
0.543,0.957,0.07
0.215,0.59,-0.086
0.109,0.934,0.043
0.395,1.059,0.086
0.418,0.98,-0.008
0.301,0.871,-0.059
0.164,0.742,-0.031
0.066,0.711,-0.035
0.02,0.773,-0.012
-0.051,0.688,0.039
-0.059,0.805,0.043
0.051,0.902,0.09
0.234,1.07,0.063
0.148,1.07,0.094
-0.336,1.004,0.125
-0.059,1.301,0.098
0.301,1.371,0.055
0.609,1.156,0.305
0.703,1.16,0.43
0.523,1.18,0.016
0.223,1.391,-0.109
0.121,1.184,0.047
0.074,0.805,0.078
0.063,0.574,0.066
0.133,0.535,-0.016
0.16,0.539,-0.043
0.125,0.645,-0.055
0.082,0.598,-0.141
-0.086,0.57,-0.133
-0.238,0.875,-0.219
0.008,1.125,0.055
0.043,1.945,-0.098
-0.586,1.453,-0.344
0.172,1.504,-0.238
0.723,1.34,0.098
0.465,0.586,-0.141
0.242,0.879,-0.078
0.355,0.969,0.027
0.41,0.91,0.031
0.281,0.746,-0.02
0.227,0.742,-0.004
0.125,0.789,0.0
-0.02,0.84,-0.016
-0.086,0.75,0.0
-0.078,0.742,0.055
0.02,0.828,0.066
0.211,0.918,0.102
0.398,1.02,0.09
0.051,0.992,0.164
-0.273,1.129,0.145
0.023,1.434,0.27
0.23,1.555,0.105
0.477,1.191,0.184
0.484,1.113,0.297
0.438,1.199,-0.051
0.27,1.48,0.027
0.281,1.105,0.039
0.113,0.719,0.121
0.051,0.508,0.004
0.102,0.414,0.016
0.148,0.422,-0.012
0.086,0.492,-0.082
-0.047,0.418,-0.137
-0.199,0.723,-0.254
0.07,1.035,0.117
0.09,2.469,-0.262
-0.547,1.5,-0.484
0.785,1.488,-0.125
0.629,1.012,0.008
0.402,0.688,-0.156
0.227,1.063,-0.012
0.336,1.117,-0.004
0.262,0.816,-0.066
0.234,0.703,-0.051
0.141,0.652,-0.039
0.039,0.625,-0.129
-0.035,0.586,-0.008
-0.082,0.578,0.094
0.063,0.895,0.133
0.332,0.973,-0.004
0.246,1.102,-0.02
-0.535,1.223,0.129
-0.051,1.363,0.242
0.586,1.496,0.066
0.715,1.16,0.395
0.797,1.52,0.125
0.59,1.492,0.012
0.27,1.375,0.047
0.035,0.777,0.039
-0.047,0.402,0.043
-0.027,0.273,-0.016
0.109,0.176,-0.031
0.109,0.289,-0.09
-0.059,0.469,-0.188
-0.242,0.922,-0.305
0.082,1.227,0.25
0.035,2.738,-0.27
-0.883,0.895,-0.207
0.895,1.43,-0.258
1.16,1.426,0.18
0.512,0.758,-0.137
0.086,0.977,-0.082
0.301,0.941,0.004
0.215,0.801,-0.098
0.141,0.672,-0.074
0.078,0.602,-0.008
0.141,0.461,0.082
0.105,0.34,0.09
0.219,0.672,0.117
0.332,1.098,0.063
0.039,1.223,-0.02
-0.578,1.105,0.078
-0.441,1.379,0.074
0.383,1.648,-0.047
0.742,1.078,0.195
0.762,1.168,0.402
0.691,1.504,0.031
0.363,1.496,0.02
0.156,0.969,0.051
-0.07,0.5,0.043
-0.105,0.34,0.039
0.012,0.234,-0.008
0.113,0.336,-0.043
0.07,0.516,-0.059
-0.074,0.609,-0.203
-0.129,1.113,-0.285
0.16,1.637,0.098
-0.258,2.074,-0.336
0.285,1.336,-0.289
0.77,1.48,0.098
0.5,0.52,-0.207
0.27,1.004,-0.043
0.406,0.996,0.0
0.324,0.789,-0.039
0.266,0.586,-0.082
0.18,0.664,-0.031
0.012,0.703,-0.027
-0.129,0.625,0.008
-0.145,0.664,0.059
0.059,0.895,0.086
0.387,1.012,0.027
0.016,1.0,0.098
-0.676,1.152,0.152
0.195,1.551,0.238
0.652,1.488,0.043
0.715,1.109,0.422
0.691,1.508,0.121
0.52,1.418,-0.039
0.207,1.301,0.031
0.023,0.77,0.012
-0.012,0.434,0.059
0.031,0.309,0.012
0.188,0.227,-0.047
0.215,0.395,-0.086
0.039,0.48,-0.09
-0.168,0.664,-0.27
-0.121,1.176,0.008
0.047,2.77,-0.141
-0.934,1.402,-0.215
0.527,1.074,-0.426
1.117,1.508,0.199
0.574,0.75,-0.129
0.031,0.887,-0.109
0.242,0.813,-0.016
0.348,0.75,-0.023
0.309,0.68,-0.063
0.195,0.66,-0.051
0.063,0.68,-0.039
-0.086,0.637,0.012
-0.039,0.676,0.078
0.164,0.914,0.066
0.227,1.008,-0.051
-0.148,1.074,0.141
-0.543,1.227,0.094
0.383,1.449,0.293
0.617,1.289,0.094
0.68,1.07,0.469
0.688,1.527,0.043
0.438,1.5,0.004
0.18,1.242,0.047
0.02,0.699,0.035
-0.02,0.445,0.082
0.055,0.281,0.02
0.16,0.277,0.027
0.184,0.387,-0.055
0.066,0.406,-0.152
-0.09,0.699,-0.281
-0.074,1.16,0.012
-0.02,2.699,-0.16
-0.84,1.609,-0.523
0.418,1.0,-0.32
1.148,1.316,0.102
0.688,0.797,-0.129
0.168,0.953,-0.109
0.223,1.0,-0.031
0.301,0.828,-0.004
0.281,0.664,-0.039
0.211,0.672,-0.055
0.051,0.645,-0.082
-0.047,0.672,0.012
-0.121,0.613,0.082
-0.043,0.703,0.074
0.316,0.883,-0.023
0.328,0.949,0.113
-0.516,1.156,0.176
-0.215,1.512,0.254
0.258,1.703,-0.043
0.691,1.266,0.262
0.871,1.25,0.406
0.602,1.492,-0.059
0.16,1.559,-0.016
0.137,1.051,0.094
-0.02,0.695,0.086
-0.063,0.387,0.074
0.078,0.246,0.027
0.184,0.211,-0.008
0.156,0.348,-0.059
0.031,0.523,-0.266
-0.152,0.809,-0.332
-0.031,1.391,0.207
-0.215,2.566,-0.457
-0.363,0.664,-0.316
1.324,2.152,0.289
0.859,0.906,-0.066
0.352,0.906,-0.094
0.254,1.008,-0.043
0.313,0.996,0.0
0.301,0.75,-0.047
0.285,0.586,-0.047
0.184,0.496,-0.07
0.016,0.637,0.008
-0.141,0.641,0.023
-0.133,0.742,0.074
0.039,0.879,-0.023
0.18,1.09,-0.043
-0.277,1.125,0.145
-0.219,1.238,0.176
0.426,1.363,-0.121
0.719,1.238,0.391
0.953,1.684,0.367
0.785,1.461,0.012
0.266,1.43,-0.043
0.039,1.047,0.047
0.066,0.613,0.105
0.133,0.402,0.098
0.16,0.375,0.051
0.195,0.379,-0.012
0.109,0.422,-0.078
0.047,0.473,-0.086
-0.059,0.75,-0.246
0.102,1.223,0.156
-0.004,2.277,-0.18
-0.793,1.379,-0.324
0.195,1.141,-0.305
1.031,1.68,0.188
0.715,0.711,-0.063
0.113,0.688,-0.066
0.215,0.859,0.047
0.383,0.902,0.047
0.355,0.809,-0.051
0.246,0.715,-0.02
0.074,0.789,-0.016
-0.047,0.848,-0.004
-0.094,0.75,0.043
-0.07,0.789,0.066
0.004,0.902,0.027
0.23,0.977,0.031
0.137,1.02,0.117
-0.352,1.055,0.133
-0.086,1.297,0.215
0.27,1.32,-0.098
0.734,1.145,0.293
0.785,1.27,0.324
0.555,1.383,-0.016
0.188,1.434,-0.09
0.094,1.043,0.027
0.047,0.699,0.055
0.055,0.574,0.07
0.109,0.547,0.02
0.188,0.531,0.004
0.195,0.59,-0.055
0.086,0.539,-0.082
-0.082,0.531,-0.148
-0.184,0.941,-0.188
0.176,1.336,0.07
-0.121,1.918,-0.148
-0.719,1.25,-0.316
0.559,1.711,-0.07
0.918,1.234,0.133
0.391,0.531,-0.145
0.078,0.762,-0.078
0.313,0.988,0.047
0.355,0.918,-0.031
0.367,0.797,-0.051
0.246,0.723,-0.023
0.094,0.789,-0.012
-0.035,0.863,-0.004
-0.094,0.797,0.02
-0.094,0.809,0.059
-0.012,0.891,0.051
0.148,0.938,0.016
0.227,1.02,0.027
-0.172,1.023,0.109
-0.035,1.211,0.117
0.297,1.402,0.016
0.461,1.16,0.09
0.676,1.176,0.375
0.586,1.254,0.055
0.238,1.359,-0.113
0.113,1.238,0.008
0.066,0.824,0.059
0.059,0.598,0.078
0.133,0.566,0.012
0.227,0.527,-0.004
0.211,0.66,-0.004
0.176,0.57,-0.051
0.0,0.559,-0.117
-0.176,0.691,-0.133
-0.148,0.969,-0.156
0.145,1.789,0.172
-0.324,1.855,-0.246
-0.703,1.02,-0.309
0.707,1.547,-0.117
1.113,1.199,0.164
0.352,0.598,-0.133
0.113,0.754,-0.063
0.367,0.953,0.035
0.371,0.945,-0.02
0.332,0.73,-0.039
0.184,0.762,-0.008
0.043,0.797,0.0
-0.051,0.84,-0.008
-0.063,0.719,0.02
-0.008,0.766,0.031
0.129,0.941,0.063
0.324,0.992,0.031
0.168,0.945,0.047
-0.273,1.027,0.035
0.172,1.379,0.211
0.375,1.496,-0.086
0.707,1.156,0.199
0.723,1.16,0.379
0.633,1.199,-0.039
0.344,1.215,-0.098
0.07,1.07,0.051
0.082,0.766,0.043
0.066,0.633,0.0
0.172,0.613,-0.047
0.199,0.68,-0.035
0.184,0.66,-0.031
0.07,0.586,-0.043
0.004,0.512,-0.113
-0.039,0.613,-0.133
-0.121,0.961,-0.094
0.059,1.293,0.02
-0.117,1.793,-0.148
-0.492,1.512,-0.395
0.457,1.609,-0.109
0.789,1.375,0.066
0.242,0.48,-0.219
0.145,0.684,-0.105
0.406,1.02,0.051
0.438,0.984,0.02
0.34,0.703,-0.047
0.254,0.699,-0.02
0.066,0.859,-0.004
-0.094,0.883,-0.035
-0.082,0.75,-0.02
-0.027,0.789,0.016
0.027,0.875,0.059
0.172,0.879,0.0
0.34,0.996,0.02
-0.133,1.117,0.152
-0.313,1.266,0.008
0.195,1.422,-0.016
0.473,1.219,0.027
0.613,1.039,0.492
0.664,1.176,0.16
0.484,1.227,-0.063
0.148,1.25,-0.004
0.059,0.898,0.023
0.023,0.629,0.055
0.098,0.598,0.004
0.184,0.617,-0.016
0.184,0.652,-0.016
0.148,0.629,-0.07
0.012,0.547,-0.078
-0.137,0.707,-0.191
-0.109,1.0,-0.063
0.18,1.957,0.039
-0.383,1.641,-0.242
-0.16,1.16,-0.254
0.664,1.699,0.016
0.613,0.633,-0.07
0.258,0.707,-0.137
0.258,0.938,0.012
0.41,0.996,0.035
0.324,0.785,-0.039
0.309,0.727,-0.016
0.113,0.781,-0.004
0.051,0.852,-0.008
-0.016,0.727,0.016
0.0,0.762,0.074
0.07,0.871,0.07
0.172,0.926,0.035
0.328,1.047,-0.008
-0.117,1.074,0.117
-0.273,1.223,0.043
0.23,1.465,0.02
0.527,1.176,0.066
0.625,1.098,0.496
0.625,1.262,0.141
0.438,1.266,-0.066
0.184,1.25,0.012
0.055,0.852,0.051
-0.012,0.598,0.078
0.063,0.566,0.02
0.184,0.512,0.004
0.211,0.602,-0.012
0.145,0.594,-0.047
-0.031,0.52,-0.121
-0.305,0.887,-0.246
-0.051,1.129,0.063
0.055,2.359,-0.152
-0.461,1.203,-0.258
0.652,1.836,-0.059
0.652,1.047,0.031
0.266,0.516,-0.176
0.148,0.871,-0.023
0.441,0.961,0.063
0.449,0.844,-0.012
0.32,0.762,-0.043
0.152,0.754,0.004
0.016,0.793,-0.02
-0.066,0.668,0.004
-0.074,0.734,0.035
0.047,0.961,0.055
0.117,0.953,0.008
0.254,1.027,-0.059
-0.066,1.125,0.156
-0.285,1.191,0.066
0.316,1.406,0.055
0.457,1.227,0.105
0.586,1.168,0.5
0.637,1.227,0.047
0.395,1.223,-0.039
0.133,1.191,0.027
0.066,0.883,0.063
0.027,0.605,0.07
0.102,0.539,0.02
0.199,0.492,-0.012
0.23,0.574,-0.02
0.133,0.539,-0.07
-0.078,0.543,-0.113
-0.242,0.906,-0.262
0.02,1.219,0.066
0.051,2.289,-0.172
-0.723,1.141,-0.305
0.426,1.457,-0.152
0.809,1.313,0.082
0.422,0.621,-0.156
0.137,0.711,-0.07
0.336,0.883,0.039
0.422,0.949,0.008
0.367,0.762,-0.023
0.258,0.719,0.016
0.09,0.793,0.0
-0.012,0.742,-0.012
-0.051,0.707,0.047
0.004,0.801,0.09
0.07,0.934,-0.004
0.285,0.988,-0.047
0.0,1.117,0.137
-0.363,1.164,0.043
0.336,1.508,-0.027
0.695,1.359,0.184
0.555,1.223,0.492
0.52,1.164,0.047
0.383,1.191,-0.008
0.137,1.168,0.039
0.039,0.867,0.07
0.074,0.574,0.043
0.117,0.555,-0.004
0.156,0.527,-0.012
0.172,0.598,0.004
0.102,0.566,-0.07
-0.031,0.484,-0.094
-0.191,0.746,-0.207
0.039,1.051,0.016
0.109,2.43,-0.027
-0.734,1.383,-0.328
0.309,1.348,-0.301
0.863,1.484,0.043
0.5,0.617,-0.156
0.121,0.684,-0.094
0.277,0.863,0.023
0.41,0.957,0.016
0.383,0.793,-0.023
0.289,0.73,0.012
0.113,0.73,0.0
-0.016,0.793,-0.016
-0.109,0.703,0.023
-0.043,0.813,0.027
0.086,0.973,0.063
0.281,1.0,-0.012
0.016,1.043,0.117
-0.457,1.125,0.055
0.207,1.43,0.043
0.676,1.324,0.047
0.648,1.09,0.473
0.613,1.25,0.055
0.43,1.297,-0.07
0.113,1.301,0.02
0.035,0.906,0.051
0.031,0.59,0.066
0.102,0.496,-0.016
0.137,0.449,-0.051
0.105,0.539,-0.043
0.016,0.574,-0.113
-0.105,0.527,-0.082
-0.238,0.875,-0.273
0.188,1.121,0.129
0.066,2.445,-0.199
-0.844,1.0,-0.266
0.512,1.586,-0.23
0.977,1.316,0.113
0.406,0.672,-0.121
0.094,0.738,-0.047
0.363,0.898,0.031
0.48,0.977,-0.004
0.352,0.828,-0.012
0.234,0.723,-0.008
0.113,0.75,-0.008
-0.051,0.754,0.008
-0.133,0.773,0.02
-0.016,0.852,0.055
0.102,0.887,0.035
0.199,1.016,-0.047
-0.004,1.059,0.098
-0.281,1.102,0.016
0.422,1.305,-0.063
0.566,1.137,0.18
0.484,1.234,0.352
0.566,1.418,0.023
0.297,1.414,-0.109
0.043,1.18,-0.023
0.035,0.828,0.027
0.094,0.578,0.074
0.137,0.559,0.008
0.172,0.527,-0.012
0.156,0.605,-0.043
0.09,0.656,-0.063
-0.051,0.555,-0.109
-0.137,0.953,-0.199
0.156,1.016,0.117
0.082,1.969,-0.117
-0.746,1.172,-0.16
0.219,1.313,-0.348
0.906,1.645,0.172
0.637,0.766,-0.066
0.043,0.668,-0.105
0.254,0.785,0.043
0.535,0.945,0.086
0.379,0.984,-0.008
0.262,0.809,-0.016
0.129,0.82,-0.012
-0.031,0.895,0.0
-0.012,0.824,0.02
-0.047,0.813,0.031
-0.023,0.902,0.039
0.051,0.926,-0.012
0.219,0.961,-0.016
-0.078,0.973,0.09
-0.113,1.109,0.035
0.348,1.234,0.043
0.477,1.27,0.055
0.535,1.109,0.355
0.637,1.09,0.156
0.457,1.27,-0.059
0.055,1.25,-0.066
0.074,1.004,0.023
0.109,0.754,0.055
0.129,0.695,0.02
0.188,0.691,0.0
0.195,0.73,-0.023
0.152,0.699,-0.02
0.039,0.59,-0.074
-0.043,0.754,-0.129
-0.02,0.906,0.023
0.188,1.09,0.0
0.02,1.488,-0.117
-0.449,1.195,-0.137
-0.07,1.297,-0.176
0.496,1.656,0.137
0.57,1.059,-0.031
0.109,0.813,-0.031
0.25,0.672,0.031
0.52,0.816,0.086
0.434,0.98,0.043
0.277,0.895,0.027
0.211,0.848,0.016
0.109,1.0,0.023
0.051,0.891,0.012
0.094,0.898,0.016
0.109,0.898,0.051
0.102,0.898,0.008
0.137,0.922,0.012
0.152,0.996,-0.02
0.129,0.984,-0.043
0.145,0.961,-0.023
0.117,0.965,-0.008
0.137,0.969,-0.016
0.18,1.047,-0.023
0.02,1.215,0.066
0.215,1.297,0.254
0.68,1.102,0.242
0.594,0.91,0.051
0.219,0.93,-0.02
0.125,1.02,0.027
0.23,0.996,0.074
0.211,0.832,0.031
0.223,0.781,-0.012
0.23,0.848,0.0
0.184,0.863,-0.027
0.145,0.891,-0.082
0.117,0.871,-0.09
0.145,0.945,-0.113
0.191,1.027,-0.031
0.121,0.984,-0.078
0.145,0.914,-0.039
0.148,0.945,-0.055
0.09,0.918,-0.047
0.035,0.996,-0.059
0.125,1.188,0.0
0.172,1.281,-0.008
0.203,0.996,0.004
0.164,0.816,0.016
0.273,0.832,0.059
0.398,0.992,0.109
0.34,0.965,0.129
0.242,0.879,0.129
0.219,0.945,0.113
0.199,0.98,0.113
0.16,0.969,0.113
0.164,0.965,0.098
0.148,0.984,0.082
0.129,0.98,0.09
0.16,0.965,0.086
0.211,0.984,0.094
0.262,0.965,0.051
0.281,0.941,-0.035
0.262,0.922,0.051
0.195,0.988,0.09
0.176,0.969,0.066
0.262,0.906,0.055
0.305,0.953,0.035
0.234,0.969,-0.012
0.168,0.945,-0.016
0.145,0.945,-0.016
0.184,0.938,0.031
0.215,0.938,0.039
0.234,0.953,0.059
0.195,0.941,0.063
0.176,0.938,0.07
0.141,0.996,0.082
0.16,1.023,0.063
0.184,0.953,0.074
0.152,0.984,0.113
0.09,0.988,0.117
0.125,0.945,0.09
0.168,0.918,0.09
0.18,0.906,0.086
0.102,0.945,0.07
0.07,0.969,0.055
0.09,0.922,0.078
0.113,0.969,0.102
0.082,1.035,0.098
0.035,1.145,0.152
-0.059,1.238,0.133
0.098,1.332,0.145
0.301,1.359,0.141
0.34,1.266,0.379
0.504,1.008,0.371
0.512,0.875,0.16
0.352,0.855,0.043
0.293,1.035,0.117
0.211,1.066,0.156
0.125,0.762,0.031
0.09,0.664,-0.016
0.098,0.645,-0.039
0.113,0.688,-0.078
0.066,0.602,-0.109
0.008,0.547,-0.18
-0.059,0.609,-0.207
-0.055,0.938,-0.215
0.023,1.676,-0.043
-0.316,1.574,-0.449
-0.363,1.457,-0.371
0.395,1.473,-0.195
0.566,0.836,-0.137
0.531,0.484,-0.086
0.395,1.086,0.023
0.418,1.363,0.023
0.305,0.852,-0.074
0.227,0.715,-0.164
-0.035,0.742,-0.043
-0.199,0.723,-0.02
-0.02,0.598,0.039
0.211,0.48,0.109
0.219,0.762,0.063
0.07,1.023,-0.023
0.234,1.195,0.02
-0.105,1.262,0.203
-0.5,1.09,0.008
0.363,1.316,-0.035
0.797,1.141,0.184
0.805,1.199,0.484
0.699,1.496,0.086
0.438,1.363,-0.082
0.215,1.258,0.063
0.063,0.762,0.055
0.012,0.453,0.0
-0.02,0.426,-0.035
0.043,0.383,-0.047
0.082,0.5,-0.051
-0.016,0.594,-0.082
-0.102,0.641,-0.113
-0.172,1.051,-0.199
0.277,1.711,0.254
-0.277,1.875,-0.234
-0.648,0.789,-0.324
0.793,1.668,0.031
1.035,1.246,0.113
0.328,0.699,-0.203
0.117,0.742,-0.094
0.336,0.938,0.023
0.297,0.867,-0.07
0.207,0.793,-0.043
0.082,0.691,-0.035
0.004,0.766,-0.035
-0.117,0.738,0.012
-0.133,0.754,0.023
0.102,0.918,0.027
0.211,1.004,-0.039
-0.234,0.977,0.113
-0.23,1.223,0.039
0.508,1.355,-0.098
0.836,1.27,0.398
0.777,1.348,0.293
0.586,1.277,-0.059
0.121,1.418,-0.098
-0.02,1.035,0.016
-0.051,0.598,0.074
-0.055,0.461,0.027
0.07,0.383,-0.043
0.156,0.438,-0.047
0.07,0.566,-0.074
-0.137,0.594,-0.188
-0.262,1.027,-0.238
0.242,1.102,0.215
-0.023,2.367,-0.316
-0.727,0.668,-0.238
0.848,1.848,0.051
1.039,1.367,0.004
0.273,0.742,-0.133
0.02,0.789,-0.027
0.422,0.836,0.047
0.398,0.863,-0.008
0.254,0.668,-0.016
0.078,0.699,-0.004
-0.105,0.656,0.004
-0.137,0.762,0.035
0.051,0.93,0.066
0.152,1.02,0.008
-0.012,1.027,0.023
-0.535,0.934,0.105
0.309,1.395,0.023
0.902,1.215,0.211
0.715,1.34,0.566
0.695,1.543,0.02
0.309,1.555,-0.066
0.027,1.172,-0.023
-0.008,0.707,0.031
0.004,0.414,0.082
0.012,0.316,-0.016
0.098,0.352,-0.031
0.066,0.445,-0.055
-0.082,0.559,-0.195
-0.125,0.918,-0.25
0.309,1.121,0.211
0.055,2.566,-0.359
-0.863,0.645,-0.141
0.824,1.598,-0.016
1.109,1.504,0.16
0.195,0.719,-0.16
-0.141,0.719,-0.082
0.293,0.855,0.031
0.422,0.922,-0.027
0.352,0.656,-0.035
0.129,0.688,-0.02
-0.035,0.68,-0.016
-0.137,0.699,0.02
0.027,0.867,0.043
0.145,1.016,-0.008
-0.004,1.023,-0.008
-0.57,0.875,0.082
0.242,1.348,0.121
0.84,1.215,0.129
0.656,1.414,0.52
0.793,1.613,0.043
0.426,1.574,-0.078
0.09,1.129,-0.027
-0.094,0.699,0.012
-0.016,0.426,0.098
0.059,0.281,0.012
0.152,0.352,-0.023
0.113,0.453,-0.023
-0.043,0.477,-0.207
-0.074,1.031,-0.254
0.355,1.336,0.133
-0.133,2.246,-0.234
-0.125,0.836,-0.414
0.668,1.879,0.152
0.555,0.691,-0.156
0.09,0.852,-0.066
0.285,0.961,0.02
0.473,0.891,0.008
0.367,0.734,-0.02
0.215,0.707,0.004
0.078,0.773,-0.012
-0.125,0.707,-0.027
-0.117,0.828,-0.02
0.117,0.875,0.035
0.137,1.027,-0.027
-0.113,0.867,0.063
-0.418,0.93,0.086
0.484,1.332,-0.039
0.895,1.133,0.258
0.777,1.59,0.285
0.691,1.617,-0.133
0.195,1.668,-0.07
-0.012,0.844,-0.055
-0.035,0.426,0.039
0.008,0.332,0.078
0.102,0.313,-0.016
0.191,0.402,-0.027
0.043,0.516,-0.078
-0.168,0.633,-0.246
-0.004,1.137,-0.156
0.176,2.184,0.02
-0.656,1.633,-0.168
0.277,1.098,-0.473
0.859,1.641,0.184
0.547,0.738,-0.141
0.039,0.793,-0.117
0.367,0.84,0.012
0.496,0.82,0.0
0.285,0.738,-0.039
0.109,0.656,-0.031
0.016,0.703,0.012
-0.109,0.707,0.023
-0.047,0.852,0.055
0.023,0.973,-0.055
0.016,1.066,-0.059
-0.41,0.953,0.102
0.016,1.242,0.086
0.82,1.293,0.008
0.715,1.301,0.398
0.68,1.605,0.074
0.441,1.461,-0.117
0.066,1.203,-0.063
-0.039,0.691,-0.012
0.047,0.438,0.059
0.098,0.359,0.012
0.141,0.383,-0.055
0.137,0.477,-0.043
-0.07,0.516,-0.129
-0.234,0.84,-0.301
0.156,1.102,0.145
0.105,2.594,-0.254
-0.699,0.875,-0.113
0.801,1.801,-0.105
0.898,1.379,0.059
0.383,0.789,-0.129
0.148,0.906,-0.031
0.461,0.891,0.027
0.395,0.777,-0.012
0.273,0.676,-0.039
0.098,0.625,0.0
-0.07,0.656,0.016
-0.148,0.723,0.051
0.004,0.949,0.031
0.02,1.0,-0.02
-0.148,1.055,-0.027
-0.5,1.02,0.082
0.277,1.398,-0.082
0.898,1.23,0.313
0.746,1.465,0.445
0.648,1.492,-0.012
0.258,1.445,-0.059
0.008,1.098,-0.016
-0.027,0.648,0.055
0.082,0.402,0.105
0.148,0.336,0.012
0.219,0.43,-0.02
0.16,0.535,-0.055
-0.098,0.578,-0.234
-0.207,1.055,-0.234
0.203,1.309,-0.035
-0.102,2.16,-0.156
-0.023,0.793,-0.344
0.742,1.934,0.176
0.59,0.98,-0.152
0.031,0.773,-0.07
0.129,0.844,0.043
0.426,0.891,-0.043
0.316,0.871,-0.086
0.133,0.656,-0.051
0.0,0.699,0.012
-0.074,0.633,0.047
-0.035,0.809,0.105
0.117,0.992,0.035
0.164,1.0,0.016
-0.242,0.961,0.133
-0.355,1.117,0.074
0.574,1.383,0.02
0.793,1.141,0.34
0.574,1.449,0.207
0.441,1.484,0.016
0.211,1.492,-0.02
0.063,0.918,-0.023
0.023,0.516,0.074
0.059,0.363,0.078
0.16,0.305,-0.008
0.227,0.441,-0.02
0.063,0.535,-0.086
-0.148,0.613,-0.258
-0.078,1.184,-0.055
0.121,2.191,-0.094
-0.516,1.324,-0.195
0.746,1.59,-0.141
0.695,1.316,0.102
0.305,0.699,-0.156
0.086,0.875,-0.043
0.438,0.855,0.055
0.41,0.719,-0.023
0.277,0.723,-0.035
0.105,0.664,-0.008
-0.043,0.719,0.066
-0.223,0.73,0.039
-0.117,0.891,0.059
0.121,0.98,-0.039
0.145,1.043,0.004
-0.473,1.047,0.082
0.199,1.324,0.137
0.84,1.207,0.059
0.602,1.145,0.273
0.508,1.609,0.078
0.383,1.594,-0.063
0.145,1.242,-0.008
-0.051,0.672,0.004
0.023,0.414,0.07
0.063,0.266,-0.016
0.059,0.332,-0.063
-0.051,0.492,-0.063
-0.176,0.602,-0.227
-0.102,1.008,-0.051
0.332,1.246,0.09
-0.133,2.102,-0.203
0.059,1.055,-0.402
0.762,1.723,0.059
0.605,0.793,-0.152
0.285,1.094,-0.023
0.523,0.945,0.023
0.301,0.797,-0.051
0.004,0.73,-0.102
-0.117,0.652,0.051
-0.152,0.539,0.113
-0.09,0.398,0.09
0.027,0.719,0.047
0.203,1.078,-0.012
0.27,1.273,-0.004
-0.402,1.164,0.184
-0.145,1.176,0.078
0.625,1.266,0.051
0.777,1.324,0.434
0.703,1.672,0.125
0.387,1.516,-0.086
0.172,1.184,-0.027
-0.004,0.656,0.02
0.051,0.395,0.063
0.059,0.281,-0.016
0.055,0.305,-0.074
-0.078,0.445,-0.047
-0.195,0.57,-0.199
-0.16,1.16,-0.184
0.359,1.254,0.289
-0.063,2.199,-0.148
-0.301,0.734,-0.473
0.801,1.922,0.133
0.746,0.984,-0.07
0.246,0.875,-0.113
0.297,0.848,-0.055
0.379,0.863,-0.008
0.246,0.758,-0.027
0.176,0.695,-0.02
0.082,0.691,0.008
-0.094,0.711,0.043
-0.082,0.801,0.051
0.063,0.902,0.027
0.035,0.949,-0.055
-0.344,0.918,0.141
-0.203,1.176,-0.012
0.73,1.27,-0.184
0.766,1.121,0.414
0.59,1.719,0.188
0.512,1.672,-0.137
0.172,1.387,-0.039
-0.016,0.816,-0.031
0.094,0.43,0.094
0.125,0.363,0.074
0.133,0.336,0.008
0.164,0.422,-0.027
0.098,0.453,-0.078
-0.059,0.516,-0.215
-0.074,0.895,-0.129
0.125,1.625,0.074
-0.313,2.125,-0.297
0.168,1.391,-0.375
0.852,1.801,0.172
0.359,0.27,-0.172
0.117,0.672,-0.098
0.375,1.16,0.02
0.469,1.086,0.023
0.383,0.754,-0.063
0.313,0.699,-0.012
0.145,0.742,-0.02
0.008,0.746,-0.027
-0.082,0.742,0.047
-0.113,0.824,0.031
-0.004,0.863,-0.02
0.141,0.859,-0.016
-0.094,0.938,0.039
-0.457,1.141,-0.02
0.402,1.344,-0.121
0.797,1.219,0.066
0.68,1.25,0.414
0.734,1.398,-0.008
0.492,1.48,-0.125
0.012,1.262,-0.043
-0.043,0.832,0.02
0.008,0.531,0.078
0.102,0.457,0.008
0.188,0.438,0.008
0.191,0.492,-0.043
0.113,0.508,-0.07
-0.098,0.496,-0.199
-0.188,0.848,-0.266
0.141,1.172,0.07
0.082,2.395,-0.137
-0.93,1.184,-0.309
0.48,1.637,-0.273
1.004,1.254,0.195
0.488,0.523,-0.164
0.078,0.852,-0.145
0.395,1.082,0.004
0.41,0.887,-0.027
0.332,0.73,-0.027
0.156,0.723,0.0
0.078,0.777,-0.02
-0.066,0.777,0.02
-0.199,0.738,0.02
-0.141,0.922,0.023
0.117,0.98,0.0
0.219,1.004,0.027
-0.414,1.0,0.035
0.117,1.313,-0.043
0.598,1.352,-0.051
0.801,1.086,0.445
0.711,1.379,0.105
0.488,1.418,-0.121
-0.012,1.348,-0.098
-0.043,0.891,0.012
0.035,0.508,0.082
0.09,0.398,0.004
0.184,0.375,-0.098
0.098,0.473,-0.086
-0.094,0.586,-0.074
-0.281,0.727,-0.141
-0.23,1.145,-0.176
0.375,1.066,0.234
-0.027,2.297,-0.148
-0.68,0.816,-0.289
0.605,1.781,-0.043
0.832,1.191,0.035
0.336,0.699,-0.16
0.133,0.809,-0.059
0.398,0.969,0.051
0.324,0.898,-0.047
0.227,0.77,-0.047
0.07,0.645,-0.035
-0.066,0.715,-0.016
-0.152,0.719,0.039
-0.086,0.813,0.039
0.148,0.961,0.07
0.199,0.988,0.02
-0.379,0.988,0.109
-0.047,1.293,0.063
0.52,1.438,-0.008
0.672,1.102,0.363
0.617,1.309,0.172
0.465,1.434,-0.098
0.172,1.449,-0.051
-0.027,0.973,-0.012
-0.059,0.605,0.043
-0.004,0.496,0.086
0.141,0.406,-0.008
0.211,0.539,-0.012
0.184,0.602,-0.047
-0.012,0.473,-0.109
-0.191,0.766,-0.238
0.066,1.027,0.078
0.137,2.527,-0.164
-0.738,1.227,-0.234
0.465,1.516,-0.191
0.75,1.32,0.074
0.379,0.688,-0.156
0.059,0.859,-0.055
0.359,0.922,0.039
0.445,0.82,-0.02
0.359,0.711,-0.035
0.191,0.695,-0.012
0.035,0.762,0.0
-0.168,0.742,0.031
-0.168,0.758,0.063
-0.023,0.953,0.023
0.09,1.012,-0.043
0.016,1.051,0.055
-0.406,1.035,0.063
0.391,1.348,-0.105
0.777,1.289,0.453
0.723,1.414,0.367
0.547,1.395,-0.004
0.219,1.441,-0.043
0.074,1.09,0.004
0.043,0.707,0.07
0.086,0.426,0.055
0.098,0.367,-0.016
0.141,0.406,-0.055
0.105,0.5,-0.035
-0.113,0.527,-0.113
-0.223,0.914,-0.297
0.172,1.004,0.168
0.047,2.492,-0.219
-0.75,1.203,-0.305
0.688,1.977,-0.031
0.73,1.254,0.074
0.234,0.523,-0.148
0.094,0.781,-0.016
0.527,0.957,0.078
0.441,0.914,-0.023
0.301,0.719,-0.051
0.117,0.719,-0.008
0.0,0.785,-0.004
-0.121,0.715,0.008
-0.141,0.652,0.051
0.016,0.891,0.059
0.152,1.02,-0.031
0.098,1.082,0.059
-0.402,1.07,0.082
0.414,1.438,-0.008
0.688,1.332,0.398
0.473,1.344,0.352
0.559,1.375,0.051
0.371,1.457,-0.031
0.105,1.125,-0.012
0.023,0.742,0.051
0.055,0.449,0.043
0.102,0.371,-0.043
0.25,0.438,-0.051
0.258,0.539,-0.031
-0.035,0.508,-0.129
-0.207,0.777,-0.328
0.031,1.113,0.09
0.086,2.52,-0.219
-0.715,0.938,-0.199
0.648,1.656,-0.063
0.773,1.168,0.141
0.363,0.781,-0.113
0.066,0.918,-0.051
0.391,0.965,0.043
0.41,0.816,-0.047
0.316,0.762,-0.031
0.137,0.676,-0.012
0.031,0.715,0.0
-0.133,0.691,0.035
-0.051,0.793,0.078
0.129,0.938,-0.016
0.219,1.051,-0.055
-0.285,1.008,0.102
-0.191,1.246,0.039
0.598,1.414,0.023
0.73,1.133,0.379
0.664,1.359,0.215
0.559,1.414,-0.008
0.199,1.414,-0.031
0.074,0.926,0.016
0.008,0.516,0.059
0.043,0.473,-0.012
0.105,0.414,-0.063
0.16,0.473,-0.059
0.023,0.512,-0.094
-0.172,0.578,-0.195
-0.133,1.078,-0.219
0.273,1.465,0.258
-0.152,2.004,-0.297
-0.563,0.813,-0.41
0.66,1.844,0.047
0.816,1.102,-0.023
0.313,0.762,-0.113
0.23,0.859,-0.023
0.387,0.922,0.016
0.234,0.734,-0.066
0.184,0.746,-0.039
0.074,0.66,0.004
-0.004,0.691,0.039
-0.086,0.617,0.039
0.039,0.875,0.043
0.207,0.965,-0.023
0.207,1.117,-0.059
-0.305,1.176,0.105
-0.242,1.293,0.094
0.457,1.391,0.0
0.68,1.0,0.199
0.539,1.234,0.293
0.523,1.418,0.035
0.348,1.488,0.004
0.152,1.047,-0.023
-0.063,0.648,0.051
-0.063,0.453,0.047
0.063,0.348,-0.008
0.184,0.418,-0.039
0.102,0.523,-0.07
-0.121,0.539,-0.203
-0.199,1.043,-0.277
0.223,1.348,0.219
-0.133,2.348,-0.305
-0.637,0.594,-0.309
0.922,1.801,0.055
0.957,1.371,0.02
0.23,0.766,-0.145
0.109,0.777,-0.043
0.371,0.887,0.02
0.293,0.875,-0.039
0.234,0.684,-0.043
0.055,0.695,0.0
-0.047,0.68,0.012
-0.109,0.637,0.047
-0.004,0.867,0.039
0.184,1.0,-0.043
0.066,1.082,0.012
-0.559,1.16,0.016
0.207,1.461,0.027
0.66,1.313,0.066
0.555,1.117,0.418
0.578,1.332,0.082
0.461,1.371,-0.059
0.195,1.316,0.004
0.02,0.852,-0.012
-0.059,0.504,0.031
-0.004,0.426,0.012
0.16,0.387,-0.043
0.215,0.516,-0.031
0.02,0.539,-0.055
-0.133,0.582,-0.199
0.055,1.063,-0.07
0.18,2.434,0.047
-0.695,1.523,-0.18
-0.223,0.781,-0.555
0.938,1.773,0.207
0.895,1.043,0.008
0.156,0.762,-0.176
0.168,0.859,-0.035
0.434,0.906,0.023
0.34,0.777,-0.055
0.219,0.672,-0.02
0.066,0.707,-0.023
-0.039,0.766,0.004
-0.191,0.715,0.039
-0.078,0.867,0.027
0.227,0.98,0.012
0.137,0.988,0.016
-0.512,1.043,0.012
0.168,1.438,0.109
0.648,1.375,0.082
0.574,1.063,0.324
0.523,1.309,0.137
0.496,1.449,-0.035
0.238,1.457,0.016
0.07,0.859,-0.012
-0.043,0.531,0.043
-0.023,0.402,0.035
0.156,0.316,-0.059
0.254,0.484,-0.051
0.074,0.551,-0.09
-0.113,0.652,-0.23
-0.105,1.129,-0.086
0.113,2.23,-0.105
-0.488,1.441,-0.258
0.68,1.836,-0.016
0.547,0.973,-0.035
0.254,0.559,-0.223
0.113,1.078,0.004
0.477,1.035,0.063
0.477,0.746,-0.063
0.344,0.621,-0.027
0.152,0.652,-0.016
-0.027,0.766,0.0
-0.168,0.746,0.023
-0.039,0.813,0.039
0.113,0.934,0.074
0.172,0.988,-0.039
-0.055,0.988,0.141
-0.539,1.121,0.113
0.352,1.414,0.031
0.605,1.207,0.0
0.66,1.09,0.508
0.742,1.457,0.02
0.496,1.414,-0.07
0.172,1.309,-0.055
-0.012,0.863,0.02
-0.047,0.52,0.07
0.035,0.426,0.031
0.188,0.391,-0.016
0.219,0.473,-0.055
0.125,0.531,-0.074
-0.117,0.586,-0.199
-0.09,1.059,-0.285
0.34,1.363,0.215
-0.195,2.117,-0.297
-0.527,0.699,-0.324
0.734,1.84,0.07
0.809,1.191,0.055
0.184,0.734,-0.172
0.121,0.824,-0.043
0.461,0.961,0.059
0.352,0.855,-0.051
0.277,0.766,-0.023
0.117,0.719,-0.016
-0.035,0.742,-0.016
-0.184,0.73,0.012
-0.109,0.773,0.02
0.18,0.934,0.047
0.219,1.031,-0.02
-0.352,1.012,0.012
-0.18,1.195,0.016
0.676,1.336,-0.023
0.68,1.047,0.266
0.527,1.324,0.246
0.496,1.574,-0.023
0.25,1.645,0.02
0.109,0.988,-0.039
-0.07,0.656,0.074
-0.02,0.434,0.031
0.133,0.34,-0.047
0.25,0.434,-0.039
0.063,0.508,-0.07
-0.105,0.527,-0.219
-0.074,1.055,-0.207
0.242,1.586,0.125
-0.297,1.934,-0.246
-0.566,0.656,-0.422
0.816,1.969,0.184
0.902,1.289,0.086
0.141,0.633,-0.168
-0.055,0.68,-0.047
0.371,0.863,0.039
0.359,1.0,-0.031
0.25,0.797,-0.023
0.141,0.699,-0.02
0.004,0.793,0.004
-0.125,0.738,-0.004
-0.07,0.816,0.059
0.191,1.012,0.012
0.215,1.055,-0.016
-0.469,0.941,0.016
-0.07,1.262,-0.023
0.594,1.469,-0.027
0.758,1.211,0.336
0.594,1.305,0.266
0.582,1.367,-0.031
0.273,1.297,-0.051
0.016,0.93,-0.016
-0.109,0.605,0.02
-0.098,0.441,0.012
0.082,0.344,-0.066
0.219,0.52,-0.047
0.102,0.648,-0.156
-0.098,0.734,-0.219
-0.059,0.93,-0.035
0.0,1.789,-0.176
-0.715,1.422,-0.211
0.586,1.594,-0.246
0.691,1.547,0.039
0.285,0.621,-0.199
0.094,0.781,-0.039
0.379,0.824,0.055
0.461,0.852,0.012
0.32,0.762,-0.023
0.195,0.73,0.023
0.063,0.797,0.02
-0.113,0.785,0.035
-0.117,0.82,0.055
0.051,0.953,0.027
0.25,1.016,-0.02
0.063,0.996,0.078
-0.406,1.059,-0.023
0.344,1.332,0.066
0.715,1.203,0.051
0.438,1.191,0.422
0.473,1.379,0.043
0.344,1.313,-0.063
0.141,1.168,-0.07
0.0,0.828,-0.012
0.0,0.613,0.047
0.09,0.543,0.023
0.156,0.5,-0.023
0.195,0.543,-0.035
0.016,0.527,-0.059
-0.191,0.625,-0.234
0.059,0.887,0.066
0.16,2.09,-0.219
-0.594,1.285,-0.211
0.781,1.887,-0.063
0.801,1.371,-0.023
0.168,0.547,-0.191
-0.02,0.867,0.004
0.379,1.086,0.082
0.461,0.879,0.004
0.32,0.641,-0.016
0.199,0.625,0.004
0.063,0.805,0.016
-0.066,0.75,0.031
-0.098,0.773,0.035
0.047,0.891,0.086
0.219,1.0,0.027
0.219,1.066,0.027
-0.395,1.063,0.066
0.016,1.359,0.07
0.566,1.328,0.07
0.586,1.074,0.27
0.504,1.332,0.133
0.414,1.395,-0.043
0.234,1.363,-0.027
0.121,0.828,-0.016
0.008,0.586,0.051
0.039,0.473,0.02
0.164,0.41,-0.039
0.234,0.539,-0.051
0.113,0.512,-0.063
-0.16,0.629,-0.27
-0.055,0.973,-0.008
0.109,1.805,-0.172
-0.551,1.645,-0.191
0.293,1.215,-0.254
0.848,1.715,0.09
0.406,0.602,-0.184
-0.004,0.613,-0.117
0.227,0.883,0.004
0.375,0.953,-0.004
0.273,0.762,-0.055
0.207,0.668,-0.016
0.059,0.785,0.008
-0.051,0.754,0.0
-0.117,0.742,0.074
0.047,0.883,0.031
0.266,0.988,0.004
0.063,1.055,0.063
-0.52,1.086,0.02
0.227,1.504,-0.008
0.688,1.199,0.105
0.574,1.219,0.402
0.578,1.5,0.051
0.363,1.426,-0.09
0.145,1.184,-0.02
0.02,0.691,0.016
0.0,0.441,0.059
0.09,0.375,-0.02
0.227,0.391,-0.051
0.23,0.512,-0.051
-0.047,0.477,-0.156
-0.215,0.859,-0.359
0.063,1.242,0.145
0.035,2.566,-0.195
-0.773,0.906,-0.133
0.73,1.477,-0.207
0.98,1.484,0.145
0.328,0.629,-0.145
0.059,0.695,-0.086
0.355,0.863,0.027
0.359,0.922,-0.023
0.293,0.773,-0.027
0.137,0.695,-0.008
0.035,0.707,0.016
-0.105,0.766,0.027
-0.02,0.863,0.063
0.125,0.922,-0.012
0.152,1.059,-0.074
-0.336,1.051,0.063
-0.07,1.25,0.012
0.746,1.309,0.004
0.586,1.121,0.324
0.508,1.465,0.16
0.492,1.422,-0.055
0.246,1.277,-0.035
0.059,0.832,-0.008
0.066,0.543,0.047
0.109,0.48,0.023
0.141,0.445,-0.039
0.191,0.516,-0.047
0.121,0.512,-0.078
-0.086,0.512,-0.168
-0.199,0.953,-0.34
0.184,1.336,0.199
-0.105,2.281,-0.25
-0.906,0.77,-0.273
0.668,1.609,-0.242
1.074,1.402,0.234
0.395,0.68,-0.16
0.148,0.82,-0.082
0.418,0.891,0.035
0.297,0.859,-0.02
0.184,0.875,-0.008
0.074,0.75,0.02
0.02,0.656,0.031
-0.035,0.617,0.039
0.035,0.688,0.055
0.234,0.941,0.035
0.313,1.113,-0.059
-0.277,1.063,0.043
-0.266,1.309,-0.008
0.48,1.488,-0.066
0.719,1.195,0.363
0.566,1.266,0.172
0.492,1.32,-0.043
0.262,1.379,-0.043
0.113,1.047,0.031
0.027,0.66,0.043
-0.004,0.43,-0.004
0.07,0.406,-0.063
0.129,0.48,-0.055
0.066,0.508,-0.086
-0.215,0.66,-0.25
-0.133,0.863,-0.105
0.133,1.242,-0.09
-0.195,2.09,-0.266
-0.027,0.879,-0.348
1.078,2.039,0.141
0.594,0.813,-0.125
-0.02,0.727,-0.094
0.145,0.887,-0.008
0.391,0.938,0.047
0.305,0.785,-0.012
0.238,0.676,-0.004
0.086,0.773,-0.004
-0.043,0.738,0.02
-0.16,0.73,0.055
-0.086,0.816,0.055
0.148,0.941,0.027
0.332,1.074,-0.066
-0.188,1.031,0.098
-0.203,1.266,0.039
0.543,1.379,0.008
0.656,1.211,0.449
0.555,1.328,0.137
0.441,1.355,-0.035
0.191,1.379,-0.008
0.117,0.953,0.023
0.031,0.609,0.082
0.035,0.387,0.016
0.164,0.328,-0.051
0.273,0.438,-0.043
0.133,0.555,-0.098
-0.148,0.648,-0.277
-0.203,1.172,-0.109
0.117,1.602,-0.121
-0.414,1.734,-0.223
0.125,0.898,-0.359
0.953,1.844,0.168
0.488,0.742,-0.168
-0.051,0.773,-0.098
0.207,0.914,0.023
0.445,0.863,-0.004
0.266,0.793,-0.066
0.16,0.633,-0.039
0.051,0.781,0.035
-0.051,0.688,0.035
-0.059,0.773,0.109
0.219,0.973,0.09
0.273,1.035,0.035
-0.105,1.09,0.063
-0.473,1.051,0.016
0.445,1.531,-0.059
0.707,1.219,0.258
0.652,1.293,0.328
0.621,1.457,-0.027
0.316,1.391,-0.051
0.148,0.992,0.004
0.023,0.582,0.023
-0.031,0.352,0.0
0.035,0.316,-0.078
0.098,0.355,-0.09
0.035,0.574,-0.094
-0.18,0.652,-0.18
-0.285,1.035,-0.238
0.199,1.164,0.234
0.164,2.461,-0.355
-0.855,0.758,-0.301
0.832,1.637,-0.02
0.977,1.242,0.133
0.34,0.668,-0.184
0.066,0.898,-0.074
0.363,1.0,0.023
0.336,0.848,-0.008
0.27,0.742,-0.016
0.137,0.723,-0.008
0.082,0.676,0.02
-0.023,0.684,0.008
0.035,0.789,0.063
0.129,0.895,0.023
0.18,0.977,-0.043
-0.156,0.992,0.094
-0.484,1.219,-0.012
0.395,1.391,-0.109
0.73,1.129,0.195
0.66,1.324,0.375
0.582,1.477,-0.02
0.352,1.504,-0.055
0.102,1.129,0.016
0.039,0.773,0.055
0.121,0.582,0.082
0.164,0.535,0.02
0.145,0.539,0.004
0.145,0.551,-0.008
0.039,0.395,-0.094
-0.051,0.527,-0.223
-0.059,0.844,0.031
0.039,1.637,-0.07
-0.461,1.805,-0.273
-0.254,0.914,-0.375
1.227,2.438,0.254
0.883,0.977,-0.094
0.027,0.605,-0.152
0.078,0.891,0.027
0.461,0.961,0.094
0.422,0.879,-0.008
0.336,0.656,-0.016
0.133,0.699,-0.008
-0.047,0.797,-0.004
-0.098,0.762,-0.004
-0.145,0.773,0.027
-0.113,0.844,0.047
0.035,0.93,0.012
0.379,0.93,0.012
0.148,1.027,0.176
-0.266,1.168,0.113
0.008,1.457,-0.035
0.363,1.43,-0.016
0.793,1.25,0.582
0.645,1.195,0.145
0.344,1.207,-0.082
0.043,1.289,-0.012
0.078,1.023,0.082
0.082,0.703,0.102
0.133,0.574,0.047
0.219,0.555,0.012
0.242,0.543,-0.016
0.211,0.586,-0.063
0.113,0.539,-0.125
-0.082,0.566,-0.168
-0.125,1.0,-0.277
0.094,1.496,-0.066
-0.102,1.957,-0.344
-0.25,0.902,-0.242
0.762,2.113,0.082
0.625,0.902,-0.008
0.172,0.594,-0.164
0.199,0.848,0.07
0.457,1.059,0.102
0.406,0.898,-0.027
0.348,0.746,-0.031
0.148,0.797,-0.008
0.039,0.789,-0.031
0.012,0.742,0.008
0.039,0.699,0.023
0.039,0.828,0.047
0.039,0.996,0.047
0.195,0.969,-0.023
0.203,1.066,0.039
-0.23,1.035,0.086
0.055,1.207,0.145
0.41,1.34,0.035
0.52,1.059,0.246
0.621,1.223,0.363
0.68,1.469,0.035
0.336,1.484,-0.059
0.055,1.059,-0.02
-0.027,0.676,0.051
0.039,0.523,0.082
0.129,0.512,0.008
0.168,0.559,-0.02
0.199,0.641,-0.066
0.121,0.566,-0.094
-0.09,0.59,-0.129
-0.223,0.883,-0.246
-0.02,1.227,0.035
-0.109,1.961,-0.121
-0.809,1.449,-0.246
-0.5,0.555,-0.426
1.391,2.082,0.316
1.262,1.273,0.137
0.246,0.609,-0.199
0.02,0.785,-0.051
0.387,1.027,0.063
0.426,1.023,-0.039
0.348,0.754,-0.035
0.18,0.699,-0.02
0.078,0.703,-0.02
-0.02,0.664,0.012
-0.066,0.711,0.043
-0.031,0.887,0.055
0.141,0.988,-0.004
0.227,1.125,-0.035
-0.352,1.086,0.047
-0.094,1.289,0.074
0.43,1.457,0.066
0.617,1.09,0.141
0.586,1.203,0.426
0.637,1.305,0.047
0.422,1.23,-0.043
0.148,1.098,0.004
-0.016,0.797,0.063
-0.02,0.605,0.031
0.035,0.512,0.012
0.117,0.469,0.02
0.176,0.535,-0.047
0.086,0.531,-0.082
-0.07,0.551,-0.152
-0.113,1.016,-0.215
0.23,1.727,0.168
-0.207,1.941,-0.25
-0.609,0.953,-0.324
0.684,1.898,-0.121
0.836,0.934,-0.004
0.348,0.625,-0.168
0.227,0.906,-0.004
0.457,1.02,0.063
0.305,0.844,-0.043
0.242,0.758,-0.059
0.09,0.762,-0.008
-0.008,0.707,0.012
-0.023,0.625,0.039
0.02,0.695,0.082
0.164,0.969,-0.004
0.266,0.992,-0.043
0.031,1.141,0.09
-0.477,1.133,0.027
0.105,1.387,0.176
0.527,1.273,-0.012
0.605,1.008,0.273
0.555,1.281,0.234
0.543,1.395,-0.016
0.332,1.418,0.063
0.09,0.984,-0.012
-0.004,0.668,0.063
0.039,0.578,0.031
0.094,0.488,0.012
0.168,0.484,-0.008
0.133,0.445,-0.031
-0.031,0.43,-0.121
-0.078,0.813,-0.285
0.141,1.195,0.141
0.094,2.293,-0.188
-0.816,1.176,-0.332
0.41,1.105,-0.348
0.922,1.504,0.227
0.555,0.766,-0.098
0.027,0.754,-0.098
0.242,0.887,0.035
0.512,0.98,0.039
0.391,0.906,-0.008
0.297,0.805,-0.016
0.125,0.75,0.008
0.027,0.73,-0.008
-0.059,0.711,0.027
-0.113,0.773,0.043
-0.012,0.891,0.02
0.328,0.926,0.004
0.102,1.043,0.09
-0.395,1.105,-0.035
0.258,1.449,0.0
0.477,1.293,0.117
0.547,1.199,0.449
0.684,1.293,0.117
0.523,1.332,0.02
0.238,1.273,0.02
0.109,0.887,0.039
0.016,0.555,0.055
0.02,0.492,0.0
0.121,0.469,-0.012
0.172,0.531,-0.027
0.113,0.523,-0.055
-0.035,0.516,-0.188
-0.105,0.887,-0.238
0.246,1.23,0.172
0.008,2.254,-0.285
-0.52,1.063,-0.348
0.59,1.996,-0.012
0.609,0.828,-0.023
0.297,0.52,-0.164
0.191,0.961,0.008
0.469,1.113,0.078
0.363,0.82,-0.043
0.293,0.723,-0.043
0.172,0.754,0.0
0.035,0.785,-0.016
-0.066,0.711,-0.004
-0.063,0.715,0.059
-0.012,0.898,0.027
0.199,0.965,0.016
0.188,1.094,0.09
-0.469,1.016,0.078
0.098,1.172,0.102
0.66,1.289,-0.008
0.695,1.129,0.457
0.813,1.578,0.289
0.594,1.469,-0.07
0.176,1.316,0.008
-0.008,0.816,0.004
-0.039,0.52,0.082
0.016,0.48,0.055
0.145,0.449,0.0
0.227,0.535,-0.027
0.23,0.555,-0.063
0.023,0.566,-0.141
-0.16,0.734,-0.203
-0.121,1.105,-0.051
0.199,2.031,0.047
-0.508,1.59,-0.313
0.48,1.707,-0.109
0.652,1.273,0.121
0.305,0.355,-0.168
0.148,0.848,-0.074
0.504,1.059,0.063
0.398,0.918,0.008
0.285,0.723,-0.059
0.141,0.75,0.004
0.043,0.77,0.012
-0.055,0.801,-0.02
-0.102,0.715,0.02
-0.082,0.785,0.02
0.051,0.914,-0.039
0.246,1.039,0.02
-0.234,1.043,0.148
-0.246,1.148,0.031
0.383,1.297,-0.09
0.637,0.996,0.23
0.715,1.363,0.332
0.746,1.473,-0.02
0.371,1.488,-0.059
0.098,1.133,-0.016
-0.031,0.73,0.027
-0.004,0.523,0.047
0.105,0.465,-0.039
0.141,0.48,-0.051
0.145,0.5,-0.066
0.016,0.461,-0.152
-0.176,0.637,-0.191
-0.133,1.023,-0.094
0.219,1.934,0.102
-0.52,1.723,-0.176
-0.164,0.809,-0.43
1.07,1.93,0.301
0.973,0.875,0.0
0.18,0.773,-0.152
0.133,0.984,-0.023
0.434,0.992,0.027
0.301,0.906,-0.012
0.254,0.773,-0.004
0.125,0.664,0.004
0.008,0.742,-0.023
-0.141,0.664,-0.012
-0.078,0.699,0.012
0.082,0.945,0.039
0.129,1.051,-0.078
-0.27,1.027,-0.008
-0.258,1.195,-0.035
0.418,1.383,0.055
0.617,0.988,0.176
0.566,1.238,0.281
0.563,1.551,0.059
0.313,1.535,-0.059
0.074,1.16,-0.004
-0.008,0.754,0.023
0.035,0.582,0.086
0.105,0.449,0.02
0.168,0.449,-0.016
0.164,0.52,-0.027
0.039,0.5,-0.051
-0.117,0.762,-0.266
0.105,0.973,0.176
0.074,2.414,-0.051
-0.242,1.543,-0.238
0.656,2.016,0.0
0.422,0.738,-0.09
0.145,0.512,-0.184
0.152,0.969,0.07
0.527,1.148,0.109
0.438,0.91,-0.027
0.32,0.707,0.008
0.195,0.695,0.023
0.0,0.73,0.008
-0.09,0.703,0.012
-0.105,0.742,0.063
0.078,0.902,0.074
0.207,0.988,-0.004
0.133,1.133,0.059
-0.5,1.109,0.047
0.176,1.398,0.063
0.637,1.27,0.184
0.527,1.172,0.43
0.602,1.305,0.031
0.508,1.371,0.027
0.324,1.313,0.055
0.188,0.926,0.066
0.043,0.582,0.059
0.027,0.426,-0.023
0.129,0.395,-0.027
0.191,0.441,-0.066
0.035,0.488,-0.098
-0.102,0.605,-0.246
-0.004,1.074,-0.223
0.391,1.672,0.176
-0.273,1.785,-0.434
-0.246,1.102,-0.258
0.512,1.848,0.09
0.523,0.68,-0.082
0.203,0.621,-0.133
0.148,0.965,0.055
0.395,1.051,0.023
0.316,0.84,-0.031
0.246,0.676,0.0
0.176,0.688,0.035
0.063,0.758,0.051
0.012,0.746,0.082
-0.016,0.82,0.152
0.066,1.074,0.055
0.234,1.039,0.063
-0.223,1.063,0.188
-0.578,1.031,0.074
0.398,1.363,0.055
0.73,1.215,0.145
0.641,1.027,0.379
0.703,1.309,0.227
0.398,1.512,0.016
0.16,1.414,0.004
0.145,0.77,0.047
0.074,0.41,0.086
0.039,0.457,-0.031
0.082,0.477,-0.066
0.027,0.504,-0.082
-0.148,0.586,-0.109
-0.281,0.691,-0.293
-0.066,0.949,-0.145
0.293,2.043,0.07
-0.496,1.52,-0.277
0.285,1.254,-0.219
0.742,1.465,-0.023
0.555,0.574,-0.137
0.25,1.066,0.02
0.445,1.059,0.055
0.414,0.801,-0.004
0.258,0.711,-0.059
0.18,0.668,0.023
0.102,0.707,0.094
-0.078,0.582,0.063
-0.07,0.641,0.027
0.02,0.973,0.039
0.168,1.172,-0.008
0.0,1.211,0.098
-0.57,1.152,0.117
0.133,1.355,0.07
0.629,1.223,0.008
0.652,1.027,0.41
0.664,1.441,0.129
0.488,1.359,-0.043
0.172,1.301,-0.047
0.035,0.766,-0.027
-0.012,0.492,0.055
-0.016,0.406,-0.008
0.102,0.375,-0.078
0.086,0.441,-0.074
-0.113,0.559,-0.145
-0.277,0.875,-0.25
0.02,1.121,0.102
0.191,2.297,-0.105
-0.773,1.344,-0.148
0.352,1.008,-0.555
1.063,1.594,0.254
0.605,0.711,-0.152
0.105,0.844,-0.121
0.273,0.895,-0.02
0.305,0.961,-0.02
0.258,0.836,-0.051
0.121,0.664,-0.031
0.066,0.648,0.016
-0.035,0.66,0.031
-0.059,0.738,0.039
0.051,0.898,-0.008
0.156,1.074,-0.082
-0.234,1.109,0.07
-0.297,1.297,-0.02
0.41,1.43,-0.082
0.723,1.02,0.176
0.523,1.398,0.289
0.438,1.531,-0.055
0.203,1.469,-0.055
0.07,0.965,-0.035
0.016,0.551,0.012
0.059,0.449,0.078
0.117,0.332,-0.008
0.176,0.426,-0.031
0.102,0.559,-0.043
-0.094,0.609,-0.164
-0.152,1.09,-0.234
0.355,1.238,0.211
-0.074,2.207,-0.219
-0.637,0.777,-0.242
0.695,1.859,-0.004
0.773,1.148,0.02
0.25,0.727,-0.16
0.125,0.746,-0.066
0.395,0.895,0.039
0.25,0.977,-0.039
0.184,0.828,-0.02
0.094,0.734,-0.012
0.0,0.742,0.012
-0.09,0.766,0.035
-0.074,0.82,0.066
0.117,0.859,-0.027
0.23,1.004,0.004
-0.277,1.078,0.078
-0.063,1.266,0.078
0.59,1.313,-0.035
0.602,1.133,0.246
0.559,1.441,0.211
0.461,1.414,-0.055
0.176,1.348,-0.027
0.09,0.898,-0.063
-0.055,0.617,0.031
-0.004,0.492,0.047
0.129,0.426,-0.039
0.211,0.457,-0.047
0.031,0.473,-0.121
-0.168,0.648,-0.277
0.039,1.078,0.027
0.219,2.066,-0.086
-0.5,1.547,-0.285
0.324,1.125,-0.254
0.762,1.43,0.168
0.395,0.641,-0.137
0.086,0.949,-0.094
0.371,1.004,0.035
0.387,0.906,-0.016
0.266,0.77,-0.035
0.172,0.672,-0.016
0.059,0.777,0.02
-0.027,0.652,0.023
-0.074,0.789,0.059
0.02,0.961,0.023
0.156,1.008,-0.012
0.023,1.074,0.125
-0.484,1.027,0.059
0.43,1.434,-0.035
0.688,1.086,0.215
0.598,1.406,0.215
0.59,1.516,-0.043
0.277,1.406,-0.051
0.066,0.953,-0.078
0.043,0.598,0.008
0.09,0.414,0.039
0.129,0.422,-0.016
0.207,0.457,-0.035
0.188,0.535,-0.051
-0.016,0.508,-0.156
-0.09,0.879,-0.211
0.164,1.207,0.082
0.008,2.344,-0.234
-0.645,0.969,-0.281
0.664,1.992,-0.059
0.699,0.887,-0.078
0.309,0.645,-0.191
0.227,1.027,-0.012
0.496,1.07,0.043
0.348,0.832,-0.027
0.285,0.672,-0.004
0.172,0.715,0.027
0.07,0.781,0.008
-0.047,0.746,0.031
-0.074,0.738,0.039
0.063,0.828,0.047
0.203,0.914,0.0
0.129,1.07,0.094
-0.371,1.09,0.051
0.41,1.41,-0.074
0.598,1.191,0.141
0.559,1.395,0.297
0.469,1.457,-0.047
0.301,1.387,-0.07
0.152,1.078,-0.047
0.137,0.699,0.02
0.156,0.449,0.051
0.176,0.418,-0.012
0.223,0.496,-0.023
0.199,0.555,-0.047
0.109,0.59,-0.098
-0.043,0.57,-0.145
-0.215,0.953,-0.195
0.074,1.41,0.137
-0.223,2.063,-0.262
-1.023,0.832,-0.188
0.637,1.18,-0.441
1.457,1.66,0.375
0.574,0.785,-0.129
0.102,0.754,-0.094
0.27,0.945,0.047
0.402,0.934,0.012
0.293,0.863,-0.023
0.16,0.738,-0.02
0.07,0.695,-0.012
-0.031,0.719,0.008
-0.105,0.695,0.008
-0.035,0.848,0.039
0.137,0.965,-0.016
0.113,1.141,0.039
-0.375,1.125,0.074
-0.039,1.297,0.168
0.492,1.168,-0.063
0.578,1.125,0.293
0.715,1.512,0.227
0.551,1.387,-0.082
0.223,1.48,0.074
0.094,0.84,-0.004
0.016,0.668,0.094
0.063,0.555,0.02
0.133,0.484,-0.02
0.23,0.469,-0.066
0.098,0.426,-0.141
-0.027,0.531,-0.23
-0.012,0.941,-0.02
0.066,1.641,-0.063
-0.363,1.797,-0.273
0.645,1.547,-0.039
0.703,1.293,-0.109
0.234,0.453,-0.262
0.094,0.855,-0.059
0.367,1.129,0.055
0.426,0.918,0.016
0.332,0.711,0.027
0.273,0.648,0.059
0.105,0.813,0.07
-0.023,0.727,0.047
-0.141,0.723,0.059
0.008,0.797,0.055
0.27,0.93,0.023
0.355,1.133,-0.012
-0.277,1.184,0.094
-0.262,1.277,-0.027
0.402,1.422,0.137
0.688,1.059,0.191
0.461,0.98,0.266
0.527,1.395,0.059
0.426,1.449,-0.035
0.25,1.082,-0.004
-0.004,0.605,-0.02
-0.039,0.578,-0.027
0.02,0.512,-0.047
0.141,0.539,-0.023
0.133,0.516,-0.109
-0.078,0.605,-0.18
-0.195,0.793,-0.109
0.141,1.063,0.117
0.0,2.09,-0.176
-0.938,1.016,-0.188
0.852,1.523,-0.184
1.195,1.305,0.129
0.34,0.621,-0.145
-0.102,0.906,-0.059
0.273,1.129,0.078
0.387,0.984,-0.059
0.348,0.789,-0.039
0.18,0.711,-0.012
0.055,0.742,0.02
0.02,0.656,0.059
0.008,0.727,0.051
0.0,0.945,0.02
0.027,1.027,-0.02
0.051,1.145,0.063
-0.285,1.023,0.105
0.297,1.141,-0.016
0.465,1.207,0.117
0.496,1.293,0.367
0.727,1.434,0.047
0.527,1.207,-0.043
0.094,1.098,-0.047
0.07,0.816,0.039
0.18,0.629,0.078
0.199,0.527,0.043
0.137,0.656,0.0
0.199,0.773,-0.004
0.109,0.723,-0.047
-0.055,0.68,-0.113
-0.012,0.895,-0.012
-0.023,1.074,0.023
0.145,1.191,-0.02
-0.168,1.27,-0.07
-0.277,1.121,-0.109
0.387,1.734,0.113
0.508,1.41,0.16
0.102,0.797,-0.141
0.059,0.707,-0.047
0.355,0.742,0.234
0.488,1.133,0.23
0.391,1.012,0.102
0.281,0.797,0.07
0.246,0.891,0.07
0.195,0.98,0.078
0.121,0.957,0.078
0.109,0.914,0.094
0.141,0.953,0.094
0.176,0.953,0.078
0.199,0.91,0.109
0.266,0.938,0.125
0.293,1.004,0.055
0.223,0.941,0.098
0.195,0.973,0.137
0.191,1.016,0.063
0.152,0.965,0.035
0.176,0.941,0.063
0.211,0.941,0.086
0.297,0.926,0.09
0.316,0.918,0.094
0.273,0.941,0.082
0.246,0.938,0.063
0.273,0.949,0.074
0.285,0.961,0.055
0.281,0.969,0.047
0.25,0.973,0.063
0.211,0.977,0.07
0.191,0.965,0.051
0.172,0.973,0.059
0.184,0.965,0.078
0.195,0.953,0.078
0.227,0.969,0.086
0.234,0.969,0.086
0.234,0.953,0.09
0.258,0.945,0.09
0.266,0.945,0.09
0.262,0.961,0.078
0.234,0.957,0.094
0.207,0.953,0.07
0.223,0.965,0.078
0.223,0.941,0.063
0.211,0.977,0.059
0.227,0.965,0.055
0.27,0.934,0.055
0.332,0.949,0.059
0.395,0.938,0.055
0.355,0.926,0.047
0.27,0.938,0.039
0.203,0.98,0.016
0.211,0.984,0.004
0.262,0.98,0.0
0.355,0.969,-0.012
0.379,0.934,-0.004
0.332,0.922,-0.035
0.246,0.953,-0.035
0.18,0.988,-0.051
0.203,1.02,-0.066
0.277,0.965,-0.09
0.332,0.91,-0.086
0.352,0.887,-0.113
0.336,0.883,-0.133
0.301,0.809,-0.133
0.23,0.773,-0.164
0.18,0.82,-0.211
0.195,0.883,-0.219
0.23,0.91,-0.207
0.305,0.98,-0.234
0.273,1.035,-0.23
0.238,1.063,-0.223
0.281,1.051,-0.172
0.363,1.094,-0.098
0.273,0.918,-0.063
0.215,0.805,0.164
0.203,0.926,0.219
0.18,0.953,0.262
0.258,0.914,0.23
0.219,0.961,0.215
0.168,0.926,0.211
0.234,0.949,0.23
0.211,0.961,0.23
0.207,0.926,0.199
0.199,0.918,0.211
0.133,0.949,0.188
0.051,0.965,0.168
-0.004,0.938,0.105
0.004,0.941,0.137
-0.043,1.09,0.191
-0.219,1.184,0.148
-0.313,1.164,0.066
0.059,1.125,0.188
0.227,1.277,0.133
0.445,1.16,0.449
0.504,1.215,0.34
0.371,1.324,0.016
0.172,1.316,0.012
0.125,0.961,0.125
0.063,0.676,0.105
0.066,0.516,0.012
0.07,0.531,0.0
0.094,0.563,-0.047
0.063,0.629,-0.063
-0.008,0.613,-0.129
-0.227,0.742,-0.277
0.066,0.988,0.094
0.18,2.07,-0.105
-0.609,1.48,-0.277
0.176,1.324,-0.188
0.844,1.305,0.082
0.582,0.457,-0.18
0.199,1.051,-0.047
0.289,1.102,-0.012
0.254,0.906,-0.094
0.152,0.754,-0.109
0.125,0.633,-0.035
0.02,0.695,0.051
-0.039,0.59,0.102
-0.012,0.73,0.176
0.18,0.961,0.09
0.246,1.074,0.074
-0.098,1.121,0.125
-0.559,1.121,0.059
0.379,1.445,-0.023
0.801,1.063,0.074
0.715,1.191,0.41
0.68,1.586,0.016
0.273,1.461,-0.109
0.105,1.059,-0.008
-0.016,0.586,0.043
0.063,0.344,0.055
0.125,0.316,-0.066
0.176,0.414,-0.07
0.063,0.57,-0.059
-0.184,0.664,-0.164
-0.23,1.113,-0.23
0.172,1.105,0.211
0.086,2.41,-0.277
-0.516,0.809,-0.23
0.805,1.879,0.051
0.781,1.035,-0.031
0.332,0.906,-0.168
0.23,0.973,-0.039
0.434,0.871,-0.008
0.227,0.711,-0.098
0.117,0.633,-0.055
0.039,0.629,0.039
-0.012,0.566,0.086
-0.098,0.688,0.055
-0.031,0.957,0.031
0.23,1.074,-0.008
-0.063,1.133,0.121
-0.52,1.156,0.035
0.363,1.438,0.008
0.813,1.094,0.137
0.688,1.262,0.371
0.629,1.574,0.008
0.344,1.5,-0.098
0.109,1.016,-0.023
0.016,0.512,0.035
0.086,0.344,0.07
0.098,0.293,-0.074
0.102,0.422,-0.082
-0.074,0.531,-0.082
-0.293,0.73,-0.238
-0.219,1.191,-0.109
0.324,1.305,0.141
-0.141,2.078,-0.215
0.035,0.918,-0.473
0.77,1.777,0.207
0.586,0.754,-0.207
0.117,0.824,-0.148
0.277,1.004,0.02
0.465,0.797,-0.016
0.332,0.754,-0.031
0.168,0.629,-0.012
0.043,0.727,0.035
-0.129,0.684,0.039
-0.18,0.773,0.039
0.059,0.953,0.02
0.176,1.012,-0.035
-0.305,1.039,0.133
-0.383,1.258,-0.008
0.621,1.422,-0.027
0.773,1.039,0.281
0.641,1.418,0.199
0.5,1.547,-0.063
0.145,1.488,-0.066
0.004,0.855,-0.02
-0.07,0.484,0.047
-0.012,0.367,0.059
0.117,0.301,-0.043
0.207,0.395,-0.031
0.043,0.535,-0.07
-0.148,0.656,-0.215
0.023,1.309,-0.094
0.246,2.316,-0.094
-0.66,1.309,-0.133
0.645,1.621,-0.141
0.695,1.277,0.109
0.293,0.613,-0.211
0.082,1.008,-0.082
0.531,0.922,0.059
0.434,0.742,-0.035
0.297,0.68,-0.016
0.113,0.664,0.0
-0.004,0.742,0.016
-0.164,0.773,0.008
-0.051,0.918,0.051
0.07,0.926,-0.008
-0.012,1.0,0.012
-0.566,0.969,0.098
0.359,1.398,-0.047
0.793,1.148,0.059
0.582,1.16,0.32
0.746,1.676,-0.004
0.375,1.625,-0.094
0.004,1.152,-0.086
-0.129,0.66,-0.023
-0.047,0.375,0.074
0.051,0.289,0.012
0.188,0.379,-0.031
0.219,0.523,-0.031
0.004,0.516,-0.102
-0.168,0.684,-0.258
0.152,1.164,0.066
0.078,2.648,-0.266
-1.004,1.059,-0.094
0.43,1.285,-0.348
0.977,1.461,0.215
0.645,0.836,-0.141
0.199,0.969,-0.102
0.457,0.852,0.047
0.445,0.738,0.004
0.297,0.738,0.0
0.098,0.684,-0.008
0.004,0.777,0.012
-0.184,0.727,-0.008
-0.129,0.762,0.0
0.004,0.941,-0.004
-0.004,1.031,-0.078
-0.242,1.035,0.051
-0.141,1.156,0.016
0.75,1.176,-0.109
0.742,1.094,0.336
0.637,1.609,0.203
0.504,1.625,-0.117
0.047,1.535,-0.043
-0.055,0.875,-0.035
0.039,0.465,0.09
0.137,0.301,0.051
0.148,0.301,-0.074
0.066,0.395,-0.051
-0.164,0.406,-0.148
-0.281,0.82,-0.262
0.32,1.016,0.219
0.152,2.84,-0.324
-0.887,0.965,-0.094
0.707,1.52,-0.137
0.887,1.473,0.172
0.391,0.723,-0.211
0.129,0.906,-0.059
0.461,0.965,0.102
0.402,0.801,-0.039
0.203,0.684,-0.051
0.016,0.695,-0.047
-0.125,0.641,0.0
-0.195,0.617,0.027
-0.043,0.82,0.004
0.191,1.027,0.035
0.148,1.086,-0.023
-0.473,0.996,0.047
-0.031,1.336,0.043
0.555,1.238,-0.043
0.598,1.203,0.246
0.617,1.551,0.223
0.473,1.559,-0.113
0.184,1.402,-0.059
0.0,0.805,-0.031
0.02,0.461,0.074
0.035,0.336,0.059
0.129,0.375,-0.047
0.152,0.492,-0.047
-0.02,0.492,-0.133
-0.211,0.715,-0.25
0.156,1.004,0.047
0.133,2.465,-0.207
-0.84,1.461,-0.113
-0.387,0.492,-0.531
0.988,1.848,0.219
1.133,1.215,0.008
0.176,0.715,-0.148
0.102,1.063,0.0
0.48,0.918,0.059
0.371,0.953,-0.012
0.238,0.754,-0.027
0.094,0.715,-0.035
0.02,0.719,-0.031
-0.098,0.676,-0.059
-0.137,0.668,0.027
-0.012,0.801,0.031
0.105,0.926,-0.023
-0.074,1.0,0.066
-0.336,1.09,0.031
0.191,1.215,0.141
0.508,1.141,-0.25
0.605,1.219,0.297
0.891,1.762,0.168
0.672,1.594,-0.094
0.102,1.395,-0.078
-0.051,0.895,-0.031
0.004,0.578,0.078
0.074,0.48,0.086
0.094,0.473,0.039
0.145,0.453,-0.012
0.098,0.367,-0.02
-0.004,0.395,-0.188
-0.02,0.824,-0.281
0.207,1.215,0.18
0.008,2.313,-0.223
-0.918,1.414,-0.289
0.293,1.262,-0.469
1.113,1.5,0.207
0.559,0.609,-0.133
0.039,0.844,-0.141
0.273,1.082,0.027
0.492,0.887,-0.012
0.379,0.738,-0.055
0.23,0.645,-0.035
0.07,0.773,0.0
-0.082,0.734,-0.008
-0.168,0.645,0.008
-0.133,0.836,0.016
0.078,0.949,0.027
0.191,1.059,-0.035
-0.301,1.063,0.082
-0.195,1.266,0.047
0.621,1.348,-0.133
0.719,1.016,0.219
0.578,1.324,0.238
0.594,1.531,-0.035
0.293,1.566,-0.051
0.094,1.082,-0.012
-0.027,0.699,0.047
0.027,0.547,0.059
0.102,0.457,-0.012
0.184,0.449,-0.023
0.18,0.469,-0.051
0.004,0.465,-0.129
-0.133,0.629,-0.23
0.066,1.008,-0.008
0.145,2.492,-0.137
-0.809,1.395,-0.262
0.469,1.07,-0.473
0.98,1.461,0.184
0.547,0.762,-0.164
0.004,0.93,-0.098
0.258,1.066,0.02
0.406,0.891,-0.012
0.383,0.754,-0.055
0.203,0.734,-0.051
0.066,0.723,-0.02
-0.016,0.648,0.012
-0.129,0.625,0.043
-0.07,0.863,0.055
0.184,0.934,0.023
0.223,1.059,-0.012
-0.359,0.996,0.074
-0.074,1.273,0.098
0.52,1.316,-0.125
0.734,1.008,0.395
0.715,1.609,0.309
0.59,1.477,-0.105
0.145,1.527,-0.02
-0.043,0.969,-0.004
-0.008,0.582,0.094
0.051,0.496,0.102
0.148,0.395,0.0
0.191,0.434,0.004
0.16,0.465,-0.027
-0.008,0.477,-0.105
-0.117,0.645,-0.258
-0.016,1.129,-0.066
0.172,2.477,-0.027
-0.773,1.363,-0.359
0.551,1.551,-0.281
0.785,1.266,0.191
0.363,0.645,-0.145
0.016,0.965,-0.121
0.398,0.938,0.023
0.383,0.813,-0.035
0.355,0.727,-0.059
0.207,0.664,-0.047
0.055,0.699,-0.016
-0.086,0.652,0.004
-0.188,0.73,0.055
-0.023,0.926,0.082
0.246,0.91,-0.004
0.199,1.016,0.031
-0.426,1.066,0.16
-0.141,1.285,0.063
0.504,1.293,-0.145
0.699,0.996,0.246
0.824,1.461,0.41
0.758,1.57,-0.133
0.23,1.543,-0.098
-0.047,1.055,-0.043
-0.055,0.645,0.055
0.055,0.488,0.113
0.184,0.449,0.047
0.191,0.477,0.016
0.199,0.484,-0.043
0.129,0.445,-0.09
-0.098,0.535,-0.199
-0.188,0.988,-0.297
0.141,1.703,0.055
-0.16,2.109,-0.398
-0.438,0.934,-0.207
0.918,1.773,-0.012
0.766,1.027,0.02
0.199,0.844,-0.152
0.094,1.008,-0.035
0.367,0.918,0.039
0.383,0.723,-0.051
0.266,0.664,-0.059
0.125,0.684,-0.031
-0.004,0.672,0.016
-0.086,0.547,0.047
-0.043,0.754,0.051
0.02,0.949,0.0
0.309,1.094,-0.094
0.043,1.086,0.066
-0.551,1.152,0.008
0.289,1.398,-0.012
0.66,1.203,0.168
0.652,1.195,0.516
0.711,1.504,0.031
0.48,1.441,-0.066
0.117,1.234,-0.012
0.016,0.723,0.039
0.012,0.418,0.055
0.016,0.355,-0.031
0.055,0.402,-0.055
0.031,0.492,-0.031
-0.133,0.535,-0.082
-0.211,0.77,-0.219
-0.043,1.172,-0.051
0.387,2.301,0.074
-0.602,1.531,-0.297
0.383,1.34,-0.25
0.785,1.305,0.156
0.543,0.582,-0.176
0.055,0.879,-0.117
0.281,1.094,0.023
0.359,0.902,-0.035
0.336,0.75,-0.074
0.188,0.645,-0.047
0.094,0.664,-0.039
-0.027,0.676,0.027
-0.133,0.746,-0.008
0.066,0.93,0.113
0.227,0.961,0.082
0.078,0.984,-0.035
-0.48,1.016,0.109
-0.074,1.309,0.125
0.605,1.293,-0.137
0.785,0.941,0.293
0.703,1.469,0.332
0.602,1.527,-0.059
0.191,1.535,-0.063
0.016,0.953,-0.004
-0.035,0.617,0.07
0.043,0.477,0.094
0.176,0.457,0.027
0.195,0.484,-0.004
0.207,0.566,-0.023
0.055,0.523,-0.078
-0.102,0.594,-0.176
-0.152,1.063,-0.195
0.113,2.016,0.074
-0.602,1.605,-0.105
0.113,1.184,-0.484
0.855,1.598,0.148
0.707,0.672,-0.125
0.16,0.898,-0.09
0.371,0.93,0.004
0.512,0.941,-0.008
0.383,0.816,-0.027
0.223,0.813,-0.023
0.121,0.762,-0.02
0.023,0.746,-0.012
-0.086,0.691,-0.008
-0.137,0.816,0.035
-0.023,0.84,0.035
0.199,0.926,0.027
0.066,0.992,0.098
-0.434,1.031,0.059
0.168,1.34,0.043
0.457,1.348,-0.055
0.797,1.199,0.492
0.871,1.441,0.266
0.625,1.266,-0.141
0.113,1.477,-0.074
0.004,1.0,-0.004
-0.074,0.672,0.09
-0.004,0.582,0.086
0.168,0.504,0.027
0.176,0.488,0.008
0.172,0.543,-0.063
0.078,0.477,-0.109
-0.09,0.641,-0.164
-0.109,0.965,-0.133
0.219,1.563,0.137
-0.23,1.91,-0.234
-0.551,1.238,-0.262
0.781,1.91,0.016
0.789,0.91,0.047
0.289,0.621,-0.184
0.105,0.898,-0.047
0.391,1.035,0.07
0.445,0.789,-0.023
0.367,0.715,-0.023
0.195,0.691,-0.016
0.035,0.84,0.0
-0.063,0.801,0.004
-0.148,0.73,0.023
-0.07,0.867,0.031
0.105,0.902,0.063
0.359,1.031,-0.004
-0.086,0.98,0.109
-0.387,1.137,0.09
0.27,1.387,0.184
0.59,1.309,-0.02
0.727,1.066,0.398
0.676,1.332,0.191
0.473,1.277,-0.039
0.129,1.285,-0.008
0.082,0.914,0.047
0.063,0.594,0.098
0.078,0.531,0.012
0.078,0.5,-0.035
-0.012,0.625,-0.031
-0.004,0.652,-0.035
-0.078,0.609,-0.059
-0.172,0.617,-0.156
-0.199,1.008,-0.164
0.305,1.57,0.211
-0.219,1.98,-0.297
0.168,1.328,-0.293
0.723,1.625,0.145
0.543,0.512,-0.176
0.211,0.805,-0.125
0.313,1.039,-0.012
0.426,0.926,0.035
0.359,0.719,-0.043
0.238,0.707,-0.023
0.129,0.762,-0.016
-0.004,0.754,-0.02
-0.09,0.73,0.0
-0.09,0.766,0.012
0.035,0.879,0.074
0.281,0.918,0.016
0.242,1.039,0.055
-0.422,1.098,0.113
-0.129,1.332,0.113
0.469,1.355,-0.07
0.691,0.977,0.164
0.57,1.148,0.34
0.652,1.504,0.008
0.34,1.492,-0.063
0.055,1.102,-0.043
-0.098,0.719,0.016
-0.059,0.543,0.051
0.07,0.445,-0.004
0.164,0.449,-0.02
0.172,0.496,-0.047
0.027,0.484,-0.113
-0.16,0.613,-0.145
-0.16,1.035,-0.156
0.23,1.902,0.164
-0.371,1.852,-0.305
0.074,1.32,-0.336
0.82,1.621,0.145
0.555,0.461,-0.164
0.164,0.82,-0.082
0.363,1.063,0.047
0.535,1.027,0.051
0.457,0.797,-0.016
0.328,0.695,0.0
0.18,0.758,0.016
0.043,0.766,-0.023
-0.031,0.758,0.008
-0.094,0.73,0.023
-0.082,0.801,0.055
0.043,0.867,0.023
0.367,1.004,0.004
-0.094,1.035,0.125
-0.363,1.168,0.023
0.168,1.473,-0.18
0.656,1.168,0.117
0.719,1.195,0.496
0.715,1.371,-0.008
0.406,1.387,-0.121
0.113,1.242,0.035
0.023,0.809,0.055
-0.02,0.563,0.066
0.059,0.535,0.02
0.172,0.508,0.023
0.176,0.59,-0.012
0.148,0.566,-0.059
0.012,0.52,-0.164
-0.262,0.785,-0.18
-0.047,0.98,-0.07
0.207,2.258,0.008
-0.668,1.5,-0.215
0.191,1.328,-0.398
0.941,1.449,0.145
0.578,0.629,-0.137
0.094,0.785,-0.102
0.34,0.996,0.039
0.492,1.004,0.02
0.418,0.824,-0.039
0.242,0.742,-0.02
0.082,0.75,-0.008
-0.055,0.738,-0.004
-0.109,0.699,0.02
-0.113,0.766,0.035
0.051,0.949,0.039
0.32,0.938,-0.008
0.078,0.988,0.063
-0.398,1.086,0.0
0.176,1.348,0.125
0.449,1.32,-0.063
0.66,1.027,0.367
0.711,1.371,0.152
0.52,1.406,-0.086
0.125,1.379,-0.023
-0.016,0.957,0.004
0.016,0.625,0.066
0.094,0.578,0.055
0.18,0.531,0.016
0.176,0.512,0.0
0.164,0.508,-0.055
0.016,0.488,-0.113
-0.152,0.641,-0.195
-0.063,0.98,-0.18
0.219,2.008,0.07
-0.488,1.723,-0.23
0.121,1.055,-0.457
0.855,1.668,0.156
0.641,0.723,-0.148
0.074,0.863,-0.109
0.262,0.922,0.0
0.457,0.996,0.016
0.371,0.84,-0.035
0.273,0.773,0.004
0.184,0.75,0.008
0.051,0.77,-0.008
-0.082,0.719,0.035
-0.164,0.801,0.031
-0.043,0.891,0.098
0.141,0.965,0.078
0.188,1.039,0.023
-0.332,0.945,0.086
0.074,1.262,0.031
0.637,1.281,0.016
0.672,1.113,0.336
0.742,1.414,0.168
0.563,1.363,-0.059
0.129,1.414,-0.09
-0.008,0.984,-0.008
0.082,0.59,0.074
0.148,0.492,0.102
0.191,0.441,-0.008
0.172,0.512,-0.016
0.055,0.535,-0.059
-0.063,0.598,-0.152
-0.141,0.77,-0.156
0.105,1.078,0.063
0.035,2.184,-0.227
-0.844,1.238,-0.313
0.652,1.664,-0.184
0.961,1.238,0.176
0.531,0.48,-0.203
0.094,0.988,-0.078
0.375,1.074,0.066
0.359,0.871,-0.02
0.277,0.789,-0.074
0.152,0.789,-0.055
0.02,0.746,-0.02
-0.012,0.621,0.02
-0.031,0.637,0.051
-0.016,0.816,0.086
0.113,0.934,0.027
0.238,1.043,-0.035
-0.16,1.066,0.063
-0.285,1.227,0.055
0.258,1.445,-0.039
0.66,1.148,0.086
0.676,1.309,0.379
0.602,1.434,0.039
0.395,1.301,-0.082
0.129,1.188,-0.016
0.055,0.797,0.035
0.07,0.504,0.074
0.082,0.402,0.004
0.121,0.422,-0.027
0.133,0.496,-0.031
0.004,0.527,-0.086
-0.043,0.578,-0.117
