Accelerometer X,Accelerometer Y,Accelerometer Z
0.629,0.527,0.477
0.586,0.418,0.23
0.414,1.203,-0.473
0.691,0.422,0.066
0.656,0.566,0.063
0.43,1.09,0.23
0.414,0.48,-0.242
0.59,0.238,-0.656
0.574,1.063,-1.066
0.152,1.188,-0.848
0.195,0.672,-0.484
0.543,0.68,1.129
0.34,1.016,0.375
0.227,0.844,-0.324
0.27,0.605,-0.828
0.211,0.633,-0.789
0.418,0.512,-0.668
0.137,0.773,-1.016
0.188,0.457,-0.977
0.258,0.539,-0.816
0.078,0.84,-0.645
0.066,0.918,-0.535
0.238,1.777,0.629
-0.586,0.535,-0.723
0.305,0.699,-1.215
0.492,0.43,-0.625
0.008,0.289,-0.93
0.086,0.547,-0.879
-0.055,0.168,-0.547
0.086,0.566,-1.043
0.09,0.164,-0.68
-0.047,0.422,-0.707
-0.172,0.438,-0.898
-0.184,0.039,-1.215
0.07,0.043,-0.684
0.172,0.188,-0.473
0.484,-0.637,-1.219
0.695,-0.777,-0.82
0.246,-0.195,-0.75
-0.031,0.09,-1.168
0.23,0.051,-0.84
0.184,-0.105,-0.441
0,0.105,-0.527
-0.109,0.133,-0.512
-0.199,1.828,-0.164
-0.063,0.375,-1.238
-0.254,0.418,-0.809
-0.332,1.043,-0.461
-0.348,0.961,-0.922
-0.516,1.27,-0.711
-0.887,1.512,-1.07
-0.609,1.176,-0.98
-0.52,0.82,-0.984
-0.48,0.57,-0.957
-0.469,0.344,-0.98
-0.402,0.059,-0.781
-0.852,0.5,-0.742
-0.801,0.539,-0.297
-0.508,0.316,-0.535
-0.75,0.648,-0.516
-0.777,0.699,-0.344
-0.77,0.516,-0.305
-0.84,0.754,-0.703
-1.043,0.961,-0.5
-0.898,0.883,-0.551
-0.313,0.754,-0.68
-0.195,0.961,-0.559
-0.285,0.887,-0.227
-0.457,1.012,0.027
-0.41,0.75,-0.191
-0.613,0.758,-0.125
-0.98,0.5,0.027
-0.199,0.43,0.023
-0.313,0.641,-0.184
-0.754,0.609,-1.184
-0.688,0.703,-0.594
-0.348,0.727,-0.688
-0.352,0.598,-0.895
-0.645,0.566,-1.27
-0.438,0.547,-1.016
-0.281,0.504,-0.805
-0.426,0.602,-1.004
-0.242,0.527,-0.566
0.031,0.52,-0.191
-0.055,0.59,-0.578
-0.094,1.328,-0.016
0.137,1.047,-0.379
0.004,1.16,-0.488
-0.098,1.094,-0.32
0.219,0.738,-0.113
0.215,0.707,-0.18
0.063,0.75,-0.324
0.031,0.305,-0.742
-0.609,0.809,-0.414
-0.117,1.039,-0.77
0.934,0.867,-1.336
-0.66,0.727,-0.645
0.148,0.617,0.109
0.414,1,-0.809
0.375,0.684,-0.727
-0.09,0.527,0.758
-0.027,1.004,0.344
-0.176,1.039,-0.055
0.063,0.984,0.273
-0.125,1.145,0.141
-0.109,1.012,0.098
-0.527,1.02,-0.039
0.383,1.051,0.297
-0.102,1.172,0.168
-0.133,0.883,0.023
-0.52,0.945,-0.008
0.238,1.098,0.27
-0.039,0.961,0.039
-0.109,0.91,-0.043
-0.324,1.027,-0.098
-0.02,1.063,-0.016
0.043,0.945,-0.039
0.02,0.961,-0.016
0.023,0.965,-0.004
-0.023,0.965,-0.039
0.035,1.051,0.059
0.063,1.047,0.117
0.094,1.137,0.078
0.109,0.945,0.211
0.043,1.07,0.18
0.098,0.785,0.16
0.152,0.875,0.039
0.129,0.93,0.254
0.094,0.836,0.414
0.063,0.945,0.215
0.016,0.988,0.188
-0.066,1.051,0.063
-0.012,0.996,0.266
0.016,1.012,0.23
-0.055,1.059,0.227
0.027,0.863,0.461
0.02,1.008,0.504
0.246,1.074,0.434
0.18,0.844,0.324
0.188,0.832,-0.031
0.18,1.008,-0.438
0.082,0.898,-0.422
0.031,0.77,0.234
-0.031,0.785,0.754
0.078,0.914,0
0.043,0.793,-0.605
0.02,0.859,0.02
0.152,0.918,0.633
0.348,0.957,0.641
0.305,0.988,0.57
0.406,0.793,0.285
0.445,0.785,-0.113
0.707,0.656,0.043
0.746,0.77,0.477
1.09,0.766,1.496
0.895,1.449,0.859
0.613,0.715,0.098
0.719,0.191,-0.371
0.289,0.402,-0.613
0.281,0.711,-0.332
0.359,1.023,-0.965
0.461,0.879,-0.215
0.234,0.512,-0.582
-0.016,0.426,0
0.258,0.871,0
0.363,1.289,0.133
0.223,0.992,-0.648
0.406,0.527,-0.828
0.25,0.902,-0.859
0.133,1.207,-0.422
-0.129,1.258,-0.023
-0.039,0.902,0.164
0.043,0.613,-0.492
0.098,1.02,-0.32
0.266,0.641,1.199
0.395,0.609,1.043
0.535,0.707,0.461
0.105,0.727,0.027
0.262,0.82,-0.309
0.355,0.934,0.012
0.188,0.867,0.406
-0.031,1.043,-0.27
-0.039,1.082,-0.289
-0.016,1.172,0.371
-0.172,0.941,-0.18
-0.066,0.801,-0.035
0.094,1.016,0.117
0.191,0.895,-0.027
0.324,0.965,0.242
-0.035,1.074,0.074
-0.289,1.164,0.176
-0.18,0.938,0.121
-0.43,1.125,0.047
-0.242,0.984,-0.09
-0.191,0.98,-0.117
-0.141,0.965,-0.074
-0.156,1.02,-0.055
-0.117,0.98,-0.07
-0.133,0.988,-0.031
-0.148,1,-0.004
-0.16,1.004,-0.012
-0.141,0.961,-0.055
-0.094,0.957,-0.051
-0.105,1,-0.055
-0.117,0.953,-0.074
-0.09,0.984,-0.086
-0.074,0.98,-0.094
-0.074,0.977,-0.09
-0.098,0.992,-0.082
-0.086,1.039,-0.078
-0.094,0.965,-0.109
-0.129,0.953,-0.129
-0.074,0.996,-0.121
-0.051,0.98,-0.133
-0.074,0.961,-0.148
-0.078,0.98,-0.141
-0.055,0.965,-0.152
-0.039,0.961,-0.16
-0.027,0.992,-0.145
0.016,1.035,-0.129
0.016,0.973,-0.152
-0.008,0.953,-0.152
-0.055,0.973,-0.152
-0.023,1.008,-0.137
0.023,0.973,-0.164
0.031,0.973,-0.168
0,0.988,-0.152
-0.047,0.949,-0.145
-0.086,1.016,-0.063
-0.027,1.02,-0.059
0.023,1,-0.102
0.035,0.973,-0.133
0.055,0.98,-0.129
0.043,1.008,-0.148
0.004,0.93,-0.16
-0.012,0.973,-0.145
0.012,1.008,-0.137
0.012,0.965,-0.152
-0.012,0.977,-0.152
0.027,0.996,-0.148
0.035,0.992,-0.152
0.035,0.965,-0.152
-0.004,0.973,-0.164
0,0.973,-0.152
0.02,1.008,-0.129
-0.023,0.98,-0.145
-0.016,0.965,-0.137
-0.02,1.004,-0.137
0.027,1.008,-0.133
0.055,0.949,-0.148
0.004,0.98,-0.152
-0.027,0.996,-0.141
-0.004,0.988,-0.137
-0.035,0.977,-0.152
-0.035,0.969,-0.145
0.008,0.977,-0.145
-0.02,0.996,-0.152
-0.012,0.992,-0.137
-0.012,0.992,-0.125
-0.047,0.992,-0.137
-0.023,0.984,-0.137
-0.012,0.969,-0.145
-0.043,0.969,-0.145
-0.031,1,-0.133
0.004,0.984,-0.133
0.012,0.969,-0.148
0.016,0.957,-0.164
-0.066,1,-0.141
-0.07,0.977,-0.137
-0.055,0.98,-0.148
-0.023,0.973,-0.16
0.059,1.012,-0.141
0.109,1.031,-0.125
0.008,1.02,-0.164
-0.109,0.961,-0.18
-0.078,0.938,-0.156
0.039,0.957,-0.148
0.043,0.941,-0.16
0.027,0.957,-0.156
0.094,1.004,-0.141
0.043,1.043,-0.152
-0.008,0.98,-0.18
0.027,0.965,-0.176
-0.008,1.113,-0.168
0.031,0.941,-0.117
-0.102,1.051,-0.195
-0.035,0.879,-0.164
-0.047,0.941,-0.105
0.328,0.844,-0.063
0.371,0.93,-0.063
0.121,0.926,-0.227
0.035,1.051,-0.027
-0.508,0.918,-0.148
0.164,0.859,-0.129
-0.742,1.137,-0.047
-0.469,1.098,-0.094
-0.363,1.113,0.047
0,1.082,0.105
-0.328,0.875,-0.461
-0.891,1.074,0.008
0.289,1.023,-0.027
-0.07,0.945,-0.301
0.285,0.75,-0.289
0.184,0.871,-0.309
0.07,0.672,-0.305
-0.063,0.977,-0.27
-0.34,1.223,-0.121
-0.52,0.965,-0.227
-0.418,0.801,-0.305
-0.176,0.996,-0.078
-0.289,1.016,-0.137
-0.262,1.188,-0.055
0.012,0.914,-0.059
0.129,0.973,-0.004
-0.215,1.063,-0.004
-0.535,1.027,-0.066
-0.266,0.844,-0.148
-0.379,0.938,-0.133
-0.105,1.074,-0.043
-0.18,0.984,-0.078
-0.656,0.879,-0.184
0,1.008,-0.098
-0.25,0.965,-0.145
-0.34,0.965,-0.141
-0.09,1.078,-0.059
-0.031,0.957,-0.098
-0.137,0.832,-0.254
-0.293,0.93,-0.258
-1.641,0.957,-0.457
-0.219,0.934,0.117
0.074,1.223,0.332
0.5,0.965,0.348
0.391,0.383,-0.148
-0.148,0.875,0.008
-0.281,1.125,0.074
0,1.066,0.078
0.246,0.844,0.109
0.031,1.043,0.25
-0.086,0.785,0
-0.008,0.664,0.414
0.023,1.246,0.48
-0.152,0.984,0.023
-0.332,0.945,-0.027
-0.5,1.25,0.129
-0.355,0.973,0.016
-0.238,0.871,-0.051
-0.195,0.895,-0.059
-0.121,0.895,-0.063
-0.203,0.992,-0.039
-0.141,1.043,0.082
-0.215,0.871,-0.039
-0.285,0.98,-0.027
-0.313,0.984,-0.027
-0.258,1.078,0.004
-0.121,1.043,0.023
-0.102,0.965,0.023
-0.086,0.914,0.004
-0.145,0.891,-0.012
-0.199,0.891,-0.004
-0.32,0.977,0.063
-0.363,1.145,0.078
-0.203,1.051,0.027
-0.145,0.918,0.02
-0.211,0.965,0.07
-0.227,1.027,0.082
-0.246,1,0.055
-0.215,1.008,0.074
-0.105,0.918,0.027
-0.078,0.953,0.039
-0.199,0.934,0.012
-0.16,0.957,0.055
-0.219,0.98,0.031
-0.27,0.953,0.031
-0.125,0.988,0.074
-0.246,1.066,0.105
-0.313,1.082,0.07
-0.199,0.957,0.066
-0.246,0.961,0.078
-0.234,0.938,0.141
-0.199,0.883,0.117
-0.27,0.91,0.078
-0.273,0.957,0.117
-0.152,1.008,0.133
-0.152,1.043,0.133
-0.156,0.957,0.086
-0.102,0.949,0.129
-0.125,1.023,0.125
-0.117,1.02,0.137
-0.109,0.938,0.102
-0.246,1.02,0.113
-0.207,1.043,0.117
-0.195,1.039,0.098
-0.063,0.977,0.055
-0.043,0.879,0.055
-0.16,1.07,0.313
-0.156,0.871,-0.086
-0.234,1.031,0.082
-0.223,1.012,0.082
-0.102,1.008,0.027
0.008,1.012,0.02
0,0.996,0.035
-0.027,0.996,0.047
0.012,1.004,0.035
0.078,0.973,0.004
0.113,0.996,0.012
0.125,1.016,0.012
0.105,1.02,0.016
0.07,1.008,0.016
0.008,0.977,0.012
-0.07,0.953,-0.004
-0.113,0.977,-0.012
-0.066,1.02,-0.027
-0.082,1.031,-0.02
-0.129,1,-0.035
-0.156,1.031,-0.016
-0.184,1.102,-0.016
-0.199,1.102,-0.039
-0.188,1.023,-0.047
-0.148,0.887,-0.086
-0.105,0.832,-0.117
-0.121,0.875,-0.156
-0.152,0.914,-0.191
-0.168,1.004,-0.168
-0.137,1.07,-0.156
-0.047,1.066,-0.152
0.008,1.012,-0.168
-0.039,0.953,-0.188
-0.117,0.91,-0.176
-0.141,0.906,-0.172
-0.109,0.961,-0.18
-0.074,0.984,-0.18
-0.055,0.949,-0.188
-0.066,0.945,-0.203
-0.055,0.922,-0.219
-0.051,0.953,-0.234
-0.027,1,-0.211
-0.055,0.988,-0.18
-0.168,1.004,-0.141
-0.23,1,-0.113
-0.227,0.98,-0.113
-0.234,0.969,-0.121
-0.227,0.965,-0.094
-0.199,0.98,-0.07
-0.199,0.977,-0.055
-0.211,0.98,-0.055
-0.184,1.012,-0.039
-0.16,1,-0.047
-0.195,0.973,-0.074
-0.211,0.965,-0.07
-0.219,0.973,-0.051
-0.23,0.977,-0.059
-0.219,0.992,-0.055
-0.199,0.984,-0.055
-0.18,0.98,-0.047
-0.223,0.965,-0.074
-0.207,0.965,-0.074
-0.211,0.988,-0.059
-0.242,0.988,-0.055
-0.125,0.961,-0.094
-0.168,0.98,-0.102
-0.203,0.992,-0.082
-0.191,0.977,-0.082
-0.172,0.988,-0.082
-0.152,0.965,-0.109
-0.156,0.996,-0.098
-0.168,0.98,-0.125
-0.18,0.98,-0.129
-0.129,0.996,-0.133
-0.133,1,-0.133
-0.082,0.973,-0.145
-0.035,0.953,-0.156
-0.168,1.031,-0.145
-0.18,0.895,-0.176
-0.195,0.973,-0.137
-0.219,0.961,-0.152
-0.16,0.984,-0.152
-0.152,0.957,-0.152
-0.152,0.977,-0.148
-0.117,0.898,-0.211
-0.156,0.988,-0.156
-0.086,0.883,-0.227
-0.078,1.016,-0.184
-0.195,0.93,-0.191
-0.18,1.027,-0.184
-0.09,0.961,-0.176
-0.023,0.906,-0.219
-0.141,0.879,-0.188
-0.063,1,-0.191
-0.109,0.988,-0.188
-0.113,0.906,-0.238
-0.164,0.98,-0.16
-0.047,0.996,-0.121
-0.137,1.066,-0.074
-0.137,1.012,-0.109
-0.094,0.977,-0.137
-0.113,0.977,-0.164
-0.152,0.957,-0.172
-0.164,0.969,-0.164
-0.07,0.957,-0.117
-0.105,0.984,-0.227
-0.16,0.941,-0.223
-0.121,0.965,-0.203
-0.133,0.98,-0.184
-0.184,0.945,-0.199
-0.141,0.941,-0.199
-0.137,0.945,-0.227
-0.113,1.035,-0.227
-0.141,0.945,-0.227
-0.18,0.938,-0.168
-0.176,0.891,-0.281
-0.281,0.926,-0.238
-0.012,0.988,-0.172
-0.141,1.066,-0.082
-0.102,0.973,-0.102
-0.266,0.824,-0.141
0.145,1.012,-0.059
0.324,0.988,-0.016
0.027,1.027,0.02
-0.289,0.945,0.109
0.039,1.199,0.242
0.113,0.961,-0.098
-0.074,0.887,-0.199
-0.246,0.988,-0.078
-0.191,1.027,-0.125
-0.207,0.953,-0.125
-0.125,0.965,-0.086
-0.113,1.004,-0.109
-0.043,0.996,-0.141
-0.121,0.988,-0.078
-0.113,0.926,-0.082
-0.168,1.012,-0.063
-0.215,0.992,-0.07
-0.211,0.996,-0.066
-0.176,0.98,-0.066
-0.148,0.965,-0.086
-0.117,0.977,-0.078
-0.043,0.992,-0.082
0.016,0.992,-0.113
0.059,0.988,-0.117
0.121,0.996,-0.117
0.137,1.031,-0.133
0.055,0.996,-0.109
-0.082,0.957,-0.086
-0.195,0.965,-0.078
-0.273,0.977,-0.059
-0.266,0.984,-0.031
-0.211,0.977,-0.07
-0.145,0.98,-0.082
-0.121,1.02,-0.043
-0.152,1.008,-0.043
-0.184,0.984,-0.031
-0.195,0.977,-0.051
-0.285,0.961,-0.066
-0.242,0.945,-0.063
-0.223,0.977,-0.047
-0.176,0.98,-0.074
-0.176,0.992,-0.066
-0.168,0.934,-0.078
-0.191,0.984,-0.07
-0.16,1.02,-0.078
-0.18,1.008,-0.086
-0.156,0.977,-0.105
-0.063,0.977,-0.152
-0.133,0.977,-0.105
-0.07,1.027,-0.105
-0.031,1.078,-0.137
-0.086,0.98,-0.152
-0.098,1.008,-0.137
-0.102,0.965,-0.145
-0.055,0.941,-0.164
-0.051,0.949,-0.133
-0.043,0.91,-0.18
-0.125,0.949,-0.156
-0.102,0.969,-0.129
-0.098,0.969,-0.129
-0.109,1.004,-0.082
0.023,1.012,-0.121
0.098,1.02,-0.137
0.086,0.969,-0.152
-0.043,0.961,-0.094
-0.004,0.957,-0.098
0.059,0.961,-0.129
-0.047,0.902,-0.066
0.063,0.898,-0.125
0.098,0.93,-0.082
0.027,1.008,-0.047
0.176,0.949,-0.098
0.254,0.984,-0.059
0.363,1.039,-0.074
0.367,1.074,0.004
0.273,1.176,0.094
0.055,1.117,0.047
-0.18,0.934,0.082
-0.211,0.977,0.219
-0.191,1.129,0.363
0.121,1.035,0.348
-0.016,0.906,0.156
-0.18,0.793,0.16
-0.152,0.855,0.191
-0.098,0.918,0.211
-0.121,0.961,0.219
-0.012,1.012,0.215
0.09,1.023,0.238
0.086,0.996,0.266
0.02,0.996,0.305
-0.031,1.004,0.297
-0.027,0.961,0.27
-0.012,0.961,0.285
0.055,0.984,0.305
0.027,1.004,0.25
-0.023,1.055,0.219
0.008,1.164,0.234
0.008,1.168,0.242
-0.02,1.07,0.184
-0.055,0.988,0.113
-0.023,0.949,0.063
0.031,0.93,0.07
0.078,0.93,0.051
0.066,0.898,0.035
0.063,0.914,0.004
0.023,0.91,-0.016
-0.008,0.949,-0.016
0.027,0.922,-0.043
-0.035,0.977,-0.113
-0.117,0.988,-0.316
-0.023,0.863,-0.293
0.086,0.93,-0.176
-0.082,1,-0.09
-0.223,0.926,-0.086
-0.215,0.918,-0.133
-0.102,1.063,-0.156
-0.004,1.125,-0.152
0.047,1.082,-0.121
0.121,1.078,-0.066
0.09,1.008,-0.051
-0.008,0.938,-0.078
-0.066,0.855,-0.098
-0.055,0.805,-0.105
-0.035,0.848,-0.094
-0.055,0.945,-0.051
-0.023,1.02,-0.051
-0.027,0.992,-0.066
-0.23,1.012,-0.023
-0.129,1.129,-0.004
-0.051,0.965,-0.258
0.012,0.984,-0.164
0.031,0.902,-0.156
0.035,0.902,-0.121
0.043,0.887,-0.117
0.094,0.891,-0.133
0.137,0.938,-0.082
0.129,1.051,-0.047
-0.195,1.355,-0.031
-0.277,1.402,0.121
-0.168,0.898,-0.051
-0.086,0.777,-0.035
-0.16,0.934,0.078
-0.262,1.148,0.195
-0.133,1.047,0.129
-0.043,0.863,0.031
-0.125,0.891,0.031
-0.191,0.984,0.082
-0.141,1.07,0.113
-0.059,1.043,0.086
-0.059,0.977,0.098
-0.074,1.008,0.137
-0.055,1.02,0.16
-0.031,1.023,0.207
-0.016,1.059,0.18
-0.094,1.109,0.035
-0.137,1.176,-0.023
-0.055,1.031,0.016
-0.184,1.004,-0.008
-0.289,0.969,-0.094
-0.117,0.848,-0.148
-0.031,0.934,-0.121
-0.102,0.961,-0.133
-0.121,0.938,-0.152
-0.102,0.961,-0.156
-0.113,0.957,-0.16
-0.125,0.941,-0.164
-0.145,0.93,-0.176
-0.164,0.926,-0.195
-0.168,0.934,-0.188
-0.176,0.965,-0.176
-0.195,0.957,-0.156
-0.246,0.953,-0.168
-0.254,0.941,-0.16
-0.242,0.941,-0.18
-0.227,0.98,-0.156
-0.219,0.98,-0.152
-0.215,0.992,-0.148
-0.223,0.961,-0.164
-0.25,0.922,-0.168
-0.266,0.93,-0.168
-0.258,0.93,-0.156
-0.25,0.953,-0.156
-0.246,0.969,-0.152
-0.234,0.973,-0.148
-0.195,0.945,-0.156
-0.172,0.93,-0.16
-0.164,0.926,-0.168
-0.168,0.945,-0.152
-0.152,0.977,-0.094
-0.172,0.973,-0.07
-0.211,0.965,-0.055
-0.184,0.98,-0.02
-0.125,1.008,0.004
-0.121,0.992,-0.004
-0.145,0.996,-0.008
-0.148,1,0.027
-0.137,1.016,0.063
-0.129,1.039,0.09
-0.121,1.039,0.082
-0.09,1.051,0.098
-0.066,1,0.09
-0.055,0.98,0.098
-0.105,0.957,0.094
-0.109,0.969,0.109
-0.086,0.988,0.121
-0.074,1.004,0.121
-0.047,1.008,0.129
-0.031,0.988,0.125
-0.016,0.98,0.129
-0.012,0.988,0.145
-0.008,1,0.156
-0.004,0.98,0.141
-0.004,0.98,0.137
0.004,0.98,0.137
0,0.984,0.137
-0.016,0.98,0.148
-0.004,0.969,0.125
-0.031,0.961,0.102
-0.074,0.988,0.117
-0.02,1.086,0.184
0.023,1.016,0.148
0.004,0.926,0.125
-0.023,0.918,0.148
0.016,0.977,0.156
0.027,1.02,0.148
0.02,0.996,0.137
0.02,0.984,0.137
-0.012,0.988,0.133
-0.008,0.969,0.137
0.008,0.98,0.137
-0.008,0.984,0.152
-0.008,1.004,0.148
0.008,0.992,0.121
-0.066,0.969,0.121
0.008,0.969,0.152
0,0.996,0.145
-0.027,0.992,0.137
-0.031,0.992,0.152
0.004,0.988,0.152
-0.012,0.977,0.133
-0.059,0.977,0.133
-0.043,1.008,0.137
-0.043,1.004,0.121
-0.09,0.961,0.156
-0.066,0.949,0.156
0.016,0.953,0.125
0.078,0.984,0.133
0.105,0.98,0.121
0.047,0.992,0.121
0.059,1.016,0.137
0.063,0.969,0.195
0.039,0.977,0.254
0.035,0.945,0.258
-0.004,0.969,0.254
-0.031,0.949,0.207
-0.02,1.004,0.207
0.023,1,0.207
0.09,0.969,0.211
0.066,0.957,0.203
0.004,0.969,0.211
-0.023,1.004,0.254
-0.09,1.023,0.227
-0.113,0.953,0.199
-0.094,0.965,0.184
-0.035,1.02,0.145
-0.027,1.039,0.082
-0.125,1.047,0.078
-0.176,1.047,0.098
-0.168,0.953,0.105
-0.16,0.926,0.094
-0.109,0.984,0.039
-0.063,0.977,0.004
-0.09,0.957,0.004
-0.141,0.98,0.012
-0.145,1.008,-0.008
-0.137,1.004,-0.016
-0.105,0.969,-0.023
-0.133,1.004,-0.031
-0.133,0.988,-0.047
-0.078,0.965,-0.063
-0.051,0.957,-0.074
-0.031,0.977,-0.074
-0.012,0.98,-0.094
-0.012,0.973,-0.113
0.027,0.957,-0.102
0.027,0.965,-0.098
0.004,0.992,-0.094
0.016,1,-0.086
0.043,0.98,-0.07
0.031,0.992,-0.039
-0.004,1.043,-0.031
-0.012,0.977,-0.043
-0.031,0.93,-0.039
-0.039,0.973,0
-0.098,1.082,0.027
-0.117,1.086,0.039
-0.168,0.996,0.008
-0.277,0.984,0.02
-0.266,1.004,0.102
-0.277,0.891,0.168
-0.25,0.844,0.145
-0.25,1.02,0.199
-0.289,1.168,0.156
-0.289,0.973,0.004
-0.113,0.813,0.07
0.07,0.883,0.184
0.195,1.043,0.047
0.156,1.266,-0.027
0.02,1.094,-0.074
0.055,0.863,-0.07
0.074,0.953,-0.031
-0.094,1.176,0.07
0.133,0.66,-0.16
0.012,0.871,-0.188
-0.047,1.016,-0.188
0.043,0.813,-0.258
0.09,0.992,-0.234
0.141,1.219,-0.207
0.203,1.086,-0.25
-0.078,1.125,-0.254
-0.32,1.094,-0.051
-0.25,0.891,0.043
-0.281,0.84,0.113
-0.32,0.98,0.238
-0.305,1.113,0.219
-0.012,1.152,0.211
0.09,0.949,0.145
-0.004,0.813,0.098
-0.094,0.816,0.117
0.02,0.906,0.125
0.188,0.977,0.113
0.25,0.953,0.09
0.223,0.844,0.063
0.164,0.789,0.012
0.176,1.008,0.055
0.18,0.84,0.004
0.676,1.078,0.066
0.34,1.691,0.039
0.223,1.273,-0.242
0,1.258,-0.008
-0.164,0.93,0.023
-0.043,0.895,-0.051
0.207,1.215,-0.039
0.145,1.227,0.023
0.066,0.855,-0.047
0.105,0.582,-0.094
0.242,0.566,-0.121
0.297,0.625,-0.148
0.203,0.715,-0.195
0.09,0.746,-0.215
0.125,0.945,-0.121
0.32,1.293,-0.078
0.5,1.504,-0.152
0.484,1.25,-0.207
0.047,1.23,-0.023
-0.43,1.008,0.246
-0.609,0.961,0.09
-0.453,0.949,0.086
-0.086,1.012,0.188
0.273,1.094,0.254
0.262,0.906,0.168
0.105,0.77,0.098
0.066,0.656,0.055
0.156,0.734,0.109
0.316,0.777,0.152
0.441,0.824,0.16
0.492,0.887,0.129
0.48,1.02,0.172
0.348,1.219,0.199
0.203,1.293,0.207
0.07,1.117,0.238
-0.125,0.855,0.242
0.113,1.086,0.164
0.469,1.305,0.395
0.512,1.281,0.332
0.316,1.035,0.238
0.195,0.746,0.258
0.121,0.664,0.262
0.051,0.676,0.285
0.016,0.777,0.234
0.039,0.816,0.188
0.23,0.82,0.07
0.305,0.922,0.109
0.141,1.102,0.215
-0.047,1.289,0.32
-0.145,1.352,0.34
0.016,1.117,0.359
0.18,0.777,0.332
0.199,0.664,0.313
0.043,0.855,0.375
0.035,0.945,0.27
0.16,0.867,0.168
0.211,0.934,0.172
0.109,1.043,0.301
-0.023,0.957,0.316
-0.016,0.941,0.254
0.074,0.828,0.199
0.184,0.824,0.172
0.27,1.199,0.293
0.34,1.246,0.355
0.305,1.02,0.141
0.316,0.969,0.105
0.262,0.973,0.207
0.133,0.859,0.227
0.008,0.855,0.246
0.008,0.914,0.234
0.113,1.012,0.055
0.207,1.047,-0.172
0.125,1.016,-0.125
0.09,0.992,-0.059
-0.035,0.891,-0.078
0.016,0.887,-0.113
0.086,0.945,-0.102
0.059,1.016,-0.07
-0.031,1.039,-0.055
-0.023,0.988,-0.09
0.063,0.969,-0.082
0.16,0.984,-0.047
0.168,1.023,-0.07
0.07,1.027,-0.027
0.02,0.973,-0.051
0.086,0.984,0.004
0.105,1.012,0.07
0.02,0.992,0.074
0.164,1.004,0.063
0.207,0.953,0.031
0.16,0.965,0.023
0.129,0.973,0.059
0.105,1,0.074
0.098,1.02,0.105
0.094,0.988,0.07
0.125,0.98,0.047
0.168,0.988,0.035
0.266,0.969,0.035
0.301,0.961,0.047
0.262,0.98,0.063
0.133,0.98,0.082
0.031,0.984,0.086
-0.047,1.012,0.07
-0.074,0.996,0.047
0.023,0.914,0.066
0.148,0.887,0.035
0.266,0.953,-0.035
0.27,1.027,-0.184
0.242,1.02,-0.219
0.332,1.094,-0.195
0.371,1.262,-0.215
0.395,1.309,-0.129
0.211,0.914,-0.289
0.094,0.781,-0.156
-0.023,0.766,-0.133
0.063,0.715,-0.102
0.109,0.727,-0.055
0.113,0.766,-0.027
0.137,0.809,-0.043
0.102,0.879,-0.031
0.102,0.926,-0.07
0.07,1.012,-0.074
0.094,1.113,-0.031
0.184,1.129,0.016
0.109,1.16,-0.152
-0.359,1.422,0.164
-0.207,1.34,0.031
-0.324,0.727,-0.266
-0.156,0.863,-0.137
-0.035,1.355,0.074
0.066,1.371,0.117
0.105,0.902,-0.016
-0.066,0.73,-0.023
-0.145,0.688,0
-0.168,0.75,0.043
-0.043,0.887,0.051
0.207,0.898,0.023
0.348,0.902,0
0.301,0.98,-0.008
0.18,0.98,0.098
0.242,1.02,0.027
0.227,1.129,-0.152
0.23,1.402,-0.043
0.156,1.141,-0.074
-0.008,0.816,-0.238
0.051,0.734,-0.32
0.328,1.047,-0.242
0.512,1.199,-0.211
0.426,1.023,-0.195
0.277,0.715,-0.203
0.215,0.59,-0.211
0.172,0.711,-0.219
0.152,0.828,-0.215
0.188,0.871,-0.195
0.227,0.938,-0.172
0.262,0.977,-0.176
0.301,0.984,-0.203
0.281,0.977,-0.223
0.328,0.914,-0.242
0.383,0.84,-0.25
0.277,0.945,-0.188
0.109,1.266,-0.063
0.023,1.316,0.004
0,0.957,-0.113
-0.012,0.801,-0.07
-0.012,0.879,0.051
0.02,0.977,0.141
0.07,0.992,0.156
0.117,0.98,0.121
0.133,0.977,0.074
0.094,0.973,0.055
0.047,0.984,0.051
0.063,0.984,0.074
0.059,0.992,0.074
0.047,1.023,0.082
0.055,1.012,0.07
0.07,1.004,0.074
0.082,1,0.09
0.121,0.988,0.117
0.18,0.969,0.094
0.215,0.984,0.094
0.273,0.98,0.105
0.332,0.957,0.09
0.32,0.98,0.086
0.262,0.969,0.086
0.199,0.961,0.09
0.16,0.98,0.117
0.066,1.016,-0.008
-0.023,1.164,0.117
0.117,1.148,0.18
0.086,1.012,0.078
-0.031,0.883,0.023
-0.004,0.82,-0.078
0.074,0.828,-0.172
0.172,0.961,-0.168
0.262,1.066,-0.102
0.309,1.082,-0.078
0.313,1.027,-0.086
0.258,0.934,-0.063
0.164,0.918,-0.035
0.074,0.941,-0.012
0.059,0.914,0.023
0.086,0.918,0.047
0.047,0.953,0.027
0.008,0.922,-0.008
0.086,0.828,-0.035
0.113,0.984,0.012
0.141,1.32,0.137
0.117,1.191,0.133
-0.039,0.957,0.07
-0.117,0.973,0.039
-0.074,0.91,0.07
-0.07,0.898,0.105
-0.086,1.02,0.137
-0.063,1.121,0.141
-0.031,1.117,0.148
0.051,0.988,0.094
0.094,0.941,0.133
0.074,0.941,0.188
0.031,1.031,0.148
-0.023,1.09,0.047
-0.066,1.031,-0.047
-0.09,0.984,-0.016
-0.156,1.004,-0.047
-0.148,1.02,-0.109
-0.055,0.992,-0.141
-0.043,0.973,-0.18
-0.117,0.977,-0.191
-0.211,0.992,-0.203
-0.238,0.977,-0.219
-0.215,0.922,-0.23
-0.215,0.855,-0.27
-0.188,0.891,-0.246
-0.172,0.926,-0.246
-0.184,0.934,-0.227
-0.195,0.898,-0.254
-0.195,0.875,-0.273
-0.16,0.941,-0.266
-0.121,0.98,-0.207
0.004,0.926,-0.246
0.055,0.926,-0.309
0.02,0.953,-0.309
0.055,0.867,-0.289
0.102,0.879,-0.273
0.152,0.898,-0.289
0.168,0.895,-0.313
0.117,1.012,-0.301
0.008,1.254,-0.199
0.035,1.117,-0.18
0.078,0.809,-0.234
0.023,0.797,-0.184
-0.102,0.98,0.023
-0.258,1.184,0.168
-0.172,1.184,0.168
-0.039,0.961,0.09
0.035,0.898,0.094
0.07,0.926,0.07
0.023,0.992,0.035
-0.016,1.047,0.02
0.023,1.027,0
0.102,0.953,-0.008
0.125,0.973,0.023
0.102,1.012,0.07
0.082,0.996,0.074
0.086,0.988,0.055
0.105,1,0.051
0.121,0.988,0.051
0.117,0.992,0.078
0.105,0.988,0.082
0.094,0.98,0.105
0.133,0.977,0.129
0.172,0.984,0.148
0.176,0.992,0.168
0.203,0.969,0.152
0.203,0.949,0.07
0.105,1.039,-0.148
-0.043,1.227,-0.023
-0.156,1.387,-0.047
-0.285,1.109,-0.172
-0.148,0.895,-0.273
0.031,0.742,-0.313
0.129,0.82,-0.258
0.027,0.961,-0.238
-0.137,1.004,-0.219
-0.191,0.922,-0.211
-0.164,0.887,-0.223
-0.195,0.852,-0.219
-0.184,0.863,-0.227
-0.117,0.93,-0.227
-0.047,1.016,-0.188
-0.004,1.059,-0.172
-0.031,1.066,-0.207
-0.102,0.832,-0.324
-0.133,0.906,-0.148
-0.109,0.973,-0.145
-0.082,1,-0.137
-0.094,0.996,-0.148
-0.098,1.016,-0.125
-0.063,1.063,-0.07
-0.012,1.012,-0.125
0.039,0.961,-0.094
0.098,0.984,-0.086
0.121,1.012,-0.063
0.09,1.008,-0.039
0.094,1.066,0.012
0.082,0.934,-0.051
0.008,0.973,0.043
0.035,1.039,0.047
0.035,1.039,0.086
0.059,1.016,0.07
0.063,0.941,0.074
0.066,0.98,0.094
0.09,0.965,0.082
0.102,0.996,-0.043
0.051,0.879,0.016
0.125,1,0.02
0.152,1.035,0.191
0.102,1.031,0.102
0.082,0.953,0.059
0.129,1.027,0.047
0.078,0.941,0.027
0.141,1.008,0.094
0.012,1.016,-0.063
0.023,0.844,-0.012
0.203,1.02,0.027
0.141,0.723,-0.105
0.145,1.195,0.117
0.18,1.223,0.156
0.066,1.074,0.039
-0.027,0.941,-0.066
0.063,0.918,-0.016
0.113,0.949,0.016
0.121,1.004,0.004
0.094,0.973,-0.012
0.074,0.934,-0.012
0.086,0.949,0.012
0.117,0.98,-0.035
0.105,0.984,-0.039
0.059,0.973,-0.023
0.102,0.98,0.023
0.082,0.969,0.063
0.063,1.004,-0.152
0.109,1.035,-0.152
0.098,0.852,-0.094
0.043,0.867,-0.168
-0.008,1.156,0.109
0.02,1.02,-0.047
-0.023,0.691,-0.098
0.113,1.266,0.066
-0.02,1.129,0.012
-0.164,0.828,-0.012
-0.02,1.102,0.078
0.238,1.094,0.109
-0.199,1.215,-0.039
0.414,1.137,0.156
-0.105,0.828,-0.113
0.066,0.984,-0.09
0.066,0.984,-0.027
0.121,0.969,-0.043
0.094,0.93,-0.066
0.07,1.031,-0.082
0.121,1.02,-0.105
0.078,0.953,-0.035
0.035,0.938,-0.066
0.141,1.055,-0.055
0.043,1.016,0.02
0.063,0.938,-0.082
0.031,0.953,-0.047
0.035,1.031,-0.027
0.039,1.02,-0.027
0.047,0.969,-0.059
0.078,0.969,-0.074
0.051,1,-0.059
-0.02,1.063,-0.008
-0.074,1.07,0.047
-0.078,0.996,0.039
0.008,0.926,-0.039
0.129,0.957,-0.043
0.262,0.984,-0.059
0.246,0.988,-0.055
0.184,0.945,-0.055
0.168,0.934,-0.035
0.16,0.961,-0.035
0.133,1,-0.027
0.09,1.027,-0.027
0.02,0.984,-0.047
-0.035,0.977,-0.066
-0.055,0.988,-0.055
-0.117,1.004,-0.063
-0.148,1.004,-0.066
-0.117,1,-0.066
-0.086,0.996,-0.063
-0.078,0.992,-0.055
-0.086,0.992,-0.055
-0.074,1,-0.051
-0.055,0.996,-0.051
-0.043,0.977,-0.051
-0.027,0.988,-0.051
-0.004,0.992,-0.051
0.02,0.984,-0.063
0.016,0.977,-0.07
0.023,0.988,-0.078
0.027,0.996,-0.078
0,0.977,-0.082
-0.008,0.984,-0.082
-0.012,0.988,-0.082
-0.012,0.984,-0.082
-0.016,0.992,-0.074
-0.027,0.988,-0.07
-0.023,0.996,-0.07
-0.02,0.992,-0.066
-0.023,0.992,-0.074
-0.035,0.992,-0.066
-0.031,0.988,-0.063
-0.02,0.992,-0.066
-0.023,0.996,-0.063
-0.023,0.992,-0.07
-0.02,0.992,-0.055
-0.027,0.992,-0.063
-0.027,0.988,-0.059
-0.031,0.992,-0.063
-0.016,0.992,-0.055
-0.016,0.996,-0.059
-0.02,0.984,-0.063
-0.023,1.004,-0.059
-0.02,0.988,-0.066
-0.02,0.992,-0.063
-0.023,0.988,-0.059
-0.023,0.988,-0.055
-0.027,0.988,-0.063
-0.031,0.992,-0.063
-0.016,0.992,-0.055
-0.016,0.992,-0.055
-0.016,0.992,-0.059
-0.008,0.984,-0.063
-0.004,1,-0.063
-0.02,0.992,-0.055
-0.051,0.992,-0.063
-0.059,0.992,-0.059
-0.047,0.992,-0.066
-0.043,0.992,-0.055
-0.023,0.992,-0.055
-0.02,0.992,-0.055
-0.012,0.988,-0.063
-0.012,0.992,-0.063
-0.016,0.984,-0.063
0.016,0.98,-0.063
0.055,0.996,-0.055
0.043,1.008,-0.047
-0.008,0.98,-0.055
-0.043,0.988,-0.051
-0.055,0.988,-0.051
-0.055,0.996,-0.051
-0.047,0.992,-0.051
-0.039,0.996,-0.063
-0.043,0.996,-0.051
-0.078,1.008,-0.055
-0.066,0.98,-0.051
-0.059,0.992,-0.051
0.004,0.98,-0.051
0.023,0.984,-0.047
0.023,0.988,-0.047
0.027,0.984,-0.051
0.027,0.984,-0.051
0.016,0.984,-0.047
0.051,0.977,-0.055
0.07,0.988,-0.063
0.063,0.996,-0.051
0.043,0.996,-0.051
0.047,1.012,-0.055
0.035,0.992,-0.055
0.027,0.977,-0.055
0.016,0.992,-0.059
-0.008,1.008,-0.066
-0.012,1.02,-0.051
-0.035,0.965,-0.066
0.07,0.977,-0.059
0.109,0.98,-0.07
0.148,0.973,-0.063
0.129,0.977,-0.055
0.117,0.98,-0.063
0.066,0.969,-0.066
0.086,0.973,-0.07
0.137,0.992,-0.07
0.176,0.984,-0.063
0.172,0.945,-0.082
0.148,0.992,-0.063
0.086,0.988,-0.051
0.086,0.973,-0.051
0.109,1,-0.059
0.172,0.91,-0.102
0.273,0.965,-0.094
0.27,0.996,-0.102
0.219,0.988,-0.094
0.199,0.965,-0.098
0.145,0.941,-0.098
0.094,0.957,-0.082
0.113,0.988,-0.07
0.133,0.988,-0.066
0.164,1.012,-0.078
0.172,1.004,-0.09
0.199,1.031,-0.078
0.199,1.012,-0.059
0.203,0.988,-0.039
0.188,0.93,-0.039
0.246,0.758,-0.086
0.211,1,-0.09
0.141,1.027,-0.043
0.188,0.895,-0.105
0.219,0.75,-0.066
0.195,0.977,-0.074
0.211,1.145,-0.02
0.16,1.02,-0.066
0.098,0.961,-0.066
0.109,0.984,-0.027
0.109,0.965,-0.031
0.121,0.992,-0.051
0.145,0.988,-0.078
0.18,0.961,-0.098
0.199,0.945,-0.094
0.195,0.957,-0.086
0.188,0.973,-0.086
0.156,0.973,-0.09
0.145,0.973,-0.082
0.156,0.961,-0.086
0.172,0.965,-0.09
0.172,0.965,-0.082
0.156,0.977,-0.074
0.125,0.98,-0.078
0.109,0.988,-0.082
0.109,0.98,-0.082
0.109,0.984,-0.074
0.105,0.98,-0.07
0.105,0.984,-0.07
0.117,0.973,-0.078
0.129,0.973,-0.078
0.141,0.973,-0.074
0.129,0.977,-0.066
0.129,0.98,-0.078
0.137,0.977,-0.066
0.129,0.973,-0.07
0.125,0.977,-0.066
0.141,0.977,-0.066
0.141,0.973,-0.07
0.148,0.98,-0.074
0.141,0.969,-0.078
0.137,0.977,-0.066
0.129,0.977,-0.07
0.129,0.98,-0.074
0.137,0.977,-0.074
0.137,0.98,-0.07
0.141,0.969,-0.074
0.137,0.973,-0.078
0.141,0.977,-0.07
0.145,0.977,-0.07
0.141,0.977,-0.066
0.129,0.977,-0.07
0.137,0.969,-0.07
0.129,0.98,-0.07
0.129,0.984,-0.07
0.125,0.977,-0.078
0.133,0.969,-0.07
0.133,0.98,-0.07
0.129,0.977,-0.07
0.129,0.977,-0.07
0.129,0.98,-0.074
0.121,0.973,-0.066
0.117,0.98,-0.074
0.113,0.98,-0.07
0.121,0.98,-0.078
0.117,0.98,-0.07
0.117,0.977,-0.07
0.117,0.98,-0.07
0.121,0.984,-0.074
0.129,0.988,-0.07
0.117,0.98,-0.07
0.109,0.984,-0.074
0.113,0.977,-0.074
0.117,0.984,-0.07
0.113,0.98,-0.066
0.121,0.977,-0.066
0.125,0.977,-0.07
0.117,0.98,-0.078
0.113,0.98,-0.066
0.117,0.984,-0.063
0.117,0.973,-0.07
0.113,0.984,-0.074
0.113,0.984,-0.07
0.117,0.984,-0.07
0.105,0.992,-0.066
0.109,0.98,-0.066
0.109,0.98,-0.066
0.121,0.98,-0.07
0.109,0.98,-0.066
0.105,0.98,-0.066
0.113,0.973,-0.07
0.105,0.988,-0.07
0.098,0.984,-0.063
0.105,0.973,-0.063
0.109,0.98,-0.063
0.113,0.984,-0.063
0.105,0.973,-0.059
0.105,0.977,-0.066
0.102,0.98,-0.059
0.102,1,-0.066
0.098,0.984,-0.07
0.09,0.98,-0.066
0.098,0.984,-0.066
0.117,0.988,-0.07
0.109,0.98,-0.059
0.098,0.98,-0.059
0.113,0.973,-0.063
0.129,0.98,-0.059
0.117,0.984,-0.051
0.113,0.969,-0.055
0.105,0.969,-0.055
0.094,0.992,-0.051
0.066,0.992,-0.063
0.043,0.992,-0.059
0.039,1.004,-0.059
0.059,0.996,-0.063
0.055,1.008,-0.063
0.039,0.988,-0.066
0.082,0.934,-0.082
0.09,1.02,-0.066
0.125,0.988,-0.07
0.133,0.992,-0.078
0.086,0.984,-0.063
0.066,0.984,-0.07
0.043,0.965,-0.07
0.035,0.984,-0.063
0.078,0.965,-0.07
0.082,1.055,-0.059
0.086,0.953,-0.098
0.074,1.004,-0.074
0.129,0.895,-0.109
0.133,1.008,-0.082
0.172,1.004,-0.066
0.277,0.961,-0.063
0.223,1.012,-0.051
0.184,0.914,-0.07
0.113,0.949,-0.055
0.043,0.98,-0.039
0.02,1.004,-0.031
0.027,1,-0.047
0.02,0.996,-0.039
0.008,0.988,-0.035
0.055,0.988,-0.023
0.07,1.012,-0.016
0.082,1.004,-0.016
0.09,0.988,-0.02
0.094,0.996,-0.012
0.098,0.98,-0.004
0.098,0.984,0.004
0.078,1.012,0.027
0.086,0.988,0.02
0.105,0.984,-0.004
0.094,0.98,0.008
0.086,1.027,0.023
0.074,1.074,0
0.063,0.961,0.027
0.059,0.977,-0.016
0.059,0.992,0
0.051,0.988,-0.004
0.086,1.004,-0.016
0.082,0.984,-0.016
0.09,0.98,-0.008
0.105,0.98,-0.004
0.121,0.984,0
0.109,1.004,0.004
0.121,0.965,-0.012
0.109,0.996,0.02
0.125,0.977,0.012
0.125,0.98,0
0.121,1.043,0.031
0.141,0.914,-0.016
0.145,0.93,-0.012
0.121,0.988,0.012
0.102,0.98,-0.02
0.031,0.996,-0.008
0.02,1.004,-0.012
0.148,1.094,0.035
0.145,0.961,0.035
0.059,0.848,-0.086
-0.238,1.02,0.02
-0.027,0.98,-0.078
0.074,0.93,-0.07
0.055,1.047,-0.012
0.039,0.988,-0.047
0.055,1.004,-0.047
0.043,1.004,-0.02
0.113,0.957,-0.027
0.121,0.988,-0.043
0.105,1,-0.008
0.129,1.012,-0.043
0.148,0.941,-0.102
0.031,0.898,-0.027
0.082,0.973,-0.059
0.133,1.012,-0.027
0.117,0.902,-0.152
0.078,1.031,0.035
0.137,1.02,-0.078
0.113,0.957,-0.133
0.086,1.016,-0.031
0.129,0.918,-0.129
0.164,0.984,-0.113
0.176,0.977,-0.102
0.152,0.926,-0.141
0.129,1.031,-0.094
0.168,0.875,-0.18
0.16,0.781,-0.234
0.184,1.02,-0.133
0.133,1.102,0.055
0.156,1.059,-0.004
0.066,0.91,-0.184
0.047,0.941,-0.141
0.125,0.984,-0.109
0.18,0.98,-0.121
0.105,0.914,-0.188
0.039,0.887,-0.117
0.148,0.926,-0.137
0.184,0.898,-0.18
0.188,0.965,-0.133
0.254,0.922,-0.012
0.309,1.082,0.188
0.363,1.109,0.055
0.293,1.016,0.063
0.176,0.957,0.035
0.047,0.793,0.027
0.098,0.863,0.063
0.32,1.094,0.164
0.254,1.121,0.219
0.195,0.969,0.238
0.063,0.852,0.047
0.102,0.855,0.035
0.191,0.977,0.109
0.207,1.02,0.211
0.566,1.07,0.066
0.254,1.004,-0.004
0.125,0.867,-0.031
0.109,0.934,0.008
0.086,0.977,0.016
0.211,1.055,0.063
0.184,0.871,-0.066
0.043,0.836,-0.07
0.055,0.945,-0.035
0.121,1.074,0.004
0.156,1.109,0.043
0.086,0.906,-0.055
0.055,0.871,-0.082
0.141,1.027,-0.027
0.098,0.965,-0.031
0.199,0.945,-0.098
0.199,1.043,-0.039
0.129,1.051,-0.055
0.039,0.965,-0.016
0.059,0.93,-0.066
0.055,0.953,-0.074
0.086,1.027,-0.012
0.094,0.984,-0.063
0.113,0.957,-0.086
0.098,1.004,-0.051
0.059,0.984,-0.02
0.082,0.953,-0.086
0.129,0.934,-0.078
0.074,1.008,-0.008
0.098,0.988,-0.063
0.082,0.938,-0.055
0.078,0.852,-0.074
0.16,1.039,0.004
0.168,0.871,-0.035
0.328,1.09,0.039
0.23,0.992,0.055
0.375,0.992,0.008
0.297,1.016,0.074
0.316,1.023,0.047
0.277,0.977,0.016
0.078,0.863,0.039
0.082,0.832,-0.02
0.184,0.957,0.016
0.215,1.039,0.035
0.168,0.988,0.078
0.188,0.957,0.008
0.156,0.93,0.016
0.176,0.988,0.016
0.184,0.98,0.016
0.195,0.961,0.004
0.211,0.965,0.016
0.211,0.965,0.023
0.223,0.965,0.031
0.199,0.973,0.047
0.164,0.969,0.051
0.145,0.996,0.063
0.156,0.988,0.055
0.152,0.977,0.051
0.16,0.953,0.055
0.184,0.961,0.055
0.172,0.977,0.063
0.121,0.977,0.074
0.125,0.953,0.047
0.191,0.953,0.035
0.199,0.902,0.02
0.254,0.953,0.012
0.281,1.082,0.074
0.23,0.977,0.031
0.234,0.98,0.039
0.129,0.875,0
0.172,0.969,0.016
0.172,0.977,0.059
0.215,0.973,0.047
0.438,1.051,0.023
0.32,1,0.043
0.266,0.961,0.027
0.168,0.816,-0.004
0.203,0.941,0.031
0.262,0.957,0.016
0.254,0.973,0.02
0.238,0.969,0.023
0.188,0.641,-0.168
0.227,0.988,0.02
0.262,1.094,0.051
0.273,0.898,0.055
0.227,0.902,0.039
0.207,0.863,0.008
0.234,1.07,0.102
0.219,0.875,-0.012
0.133,0.945,0.016
0.188,0.953,0.094
0.363,0.918,0.063
0.145,1.055,0.203
0.152,1.047,0.133
0.172,1.129,0.141
0.191,0.922,0.031
0.176,0.82,-0.07
0.176,1.02,-0.063
0.086,0.941,0.035
-0.031,0.855,-0.164
0.066,0.938,-0.16
0.113,0.996,-0.152
0.051,1.059,-0.008
0.074,1.066,0.207
0.07,0.902,0.09
0.039,0.762,-0.176
-0.16,0.938,-0.125
0.156,1.008,-0.211
0.305,1.008,-0.125
0.027,1.441,0.184
0.059,0.965,-0.031
0.074,1.043,0.051
0.145,0.895,0.055
0.125,0.926,0.047
0.16,0.977,0.082
0.16,0.98,0.078
0.156,0.98,0.074
0.137,0.984,0.086
0.152,0.984,0.09
0.145,0.98,0.102
0.121,0.984,0.109
0.121,0.969,0.117
0.125,1.004,0.066
0.082,1.051,0.059
0.031,1.094,0.043
-0.039,1.016,0.027
-0.082,0.965,-0.043
-0.117,0.984,-0.051
-0.074,1.031,-0.047
-0.078,1.043,-0.066
-0.125,0.984,-0.082
-0.168,0.949,-0.105
-0.184,0.93,-0.113
-0.199,0.922,-0.129
-0.203,0.926,-0.137
-0.215,0.926,-0.125
-0.242,0.914,-0.129
-0.242,0.934,-0.113
-0.242,0.973,-0.098
-0.242,1.02,-0.086
-0.234,0.965,-0.102
-0.223,0.953,-0.109
-0.227,0.977,-0.105
-0.195,0.988,-0.117
-0.215,0.957,-0.121
-0.215,0.938,-0.113
-0.223,0.961,-0.117
-0.211,1,-0.105
-0.148,1.012,-0.133
-0.117,0.945,-0.156
-0.109,0.922,-0.188
-0.102,0.91,-0.188
-0.047,0.906,-0.211
-0.086,0.887,-0.199
-0.141,0.957,-0.176
-0.145,1.105,-0.109
-0.125,1.078,-0.082
-0.094,0.988,-0.07
-0.07,1.023,-0.027
-0.031,1.078,0.016
0.02,0.992,0.016
0.07,0.895,-0.023
0.172,0.965,0.008
0.238,1.066,0.078
0.172,1.047,0.09
0.125,1.02,0.094
0.176,0.965,0.066
0.223,0.938,0.074
0.203,0.938,0.09
0.141,0.977,0.102
0.09,1,0.07
0.078,0.996,0.043
0.113,0.988,0.043
0.168,0.988,0.043
0.184,0.977,0.059
0.168,0.965,0.07
0.16,0.984,0.059
0.105,0.984,0.074
0.082,0.98,0.07
0.059,0.977,0.078
0.109,0.996,0.117
0.094,0.977,0.133
0.113,0.996,0.129
0.105,0.977,0.109
0.121,0.988,0.098
0.113,0.98,0.09
0.094,0.965,0.094
0.09,0.988,0.098
0.09,0.996,0.102
0.09,0.984,0.109
0.078,0.984,0.105
0.063,0.992,0.098
0.039,1.008,0.086
0.016,1.023,0.059
0.02,1,0.051
0.051,0.988,0.047
0.086,0.98,0.059
0.102,0.977,0.047
0.09,0.98,0.023
0.082,0.984,0.023
0.074,0.973,0.023
0.09,0.977,0.02
0.102,0.969,0.02
0.102,0.973,0.016
0.121,0.977,0.016
0.117,0.973,0
0.121,0.98,0
0.129,0.98,0
0.152,0.973,0.004
0.141,0.969,0.012
0.129,0.977,0
0.137,0.973,0.004
0.148,0.98,0
0.152,0.977,0
0.148,0.984,0.012
0.156,0.973,0.016
0.156,0.98,0.008
0.156,0.977,0.016
0.16,0.973,0.016
0.164,0.965,0.02
0.188,0.969,0.02
0.215,0.969,0.012
0.207,0.98,0.008
0.172,0.98,0.02
0.109,0.98,0.035
0.086,0.984,0.047
0.094,0.992,0.047
0.105,0.992,0.035
0.125,1,0.031
0.156,0.992,0.023
0.141,0.992,0.027
0.113,0.996,0.047
0.078,0.98,0.043
0.07,0.977,0.066
0.063,0.988,0.063
0.082,0.996,0.066
0.09,0.984,0.074
0.098,0.969,0.07
0.121,0.961,0.059
0.141,0.961,0.055
0.129,0.984,0.059
0.133,0.992,0.059
0.113,0.965,0.027
0.117,0.957,0
0.125,0.984,0.02
0.137,0.984,0.02
0.125,0.992,0.016
0.113,0.984,0.031
0.105,0.969,0.027
0.113,0.984,0.063
0.07,0.977,0.078
0.02,0.996,0.102
-0.02,1.008,0.121
0.016,1.012,0.117
0.035,0.996,0.09
0.039,0.988,0.059
0,0.996,0.031
0.047,0.996,0.039
0.09,0.969,0.051
0.059,0.996,0.082
-0.023,1.055,0.082
-0.105,1.039,0.043
-0.148,0.992,0.023
-0.105,0.98,0.035
-0.02,0.98,0.027
0.02,0.973,0.008
0.07,1.012,-0.008
0.117,1.004,0
0.059,1.016,-0.023
-0.031,1.031,-0.035
-0.105,1.004,-0.066
-0.113,0.988,-0.063
-0.074,1.004,-0.07
-0.02,0.988,-0.066
0.047,0.957,-0.078
0.035,0.945,-0.094
-0.031,0.91,-0.117
-0.082,0.926,-0.117
-0.078,0.957,-0.109
-0.027,0.949,-0.117
0.039,0.934,-0.137
0.094,0.934,-0.152
0.137,0.93,-0.16
0.184,0.961,-0.164
0.168,0.988,-0.168
0.156,1.137,-0.156
0.223,1.051,-0.105
0.176,0.828,-0.07
-0.008,0.836,0.023
-0.211,1.117,0.141
-0.23,1.141,0.164
0.055,1.066,0.164
0.234,0.992,0.133
0.242,0.906,0.051
0.148,0.863,0.031
0.121,0.887,0.02
0.191,0.91,0.008
0.234,0.934,0.023
0.313,0.977,0.035
0.363,0.938,0.035
0.316,0.895,0.016
0.234,1,0.027
0.27,1.109,0.043
0.32,0.992,0
0.324,0.98,-0.059
0.391,1.203,-0.055
0.355,1.285,0.184
0.016,1.066,0.219
-0.133,0.84,0.016
0.082,0.883,-0.094
0.219,1.121,0.023
0.254,1.184,0.063
0.172,1.074,0.023
0.133,0.859,-0.074
0.152,0.77,-0.086
0.137,0.75,-0.086
0.121,0.777,-0.078
0.063,0.809,-0.055
0.051,0.789,-0.074
0.059,0.895,-0.109
0.148,0.934,-0.086
0.266,0.98,-0.09
0.387,1.09,-0.086
0.461,1.055,-0.145
0.41,0.984,-0.164
0.152,1.25,-0.023
-0.031,1.457,0.105
-0.086,1,-0.031
-0.039,0.59,-0.066
0.016,0.711,0.066
0.129,1.211,0.191
0.203,1.285,0.207
0.16,0.949,0.086
0.105,0.801,0.051
0.082,0.84,0.074
0.082,0.938,0.117
0.102,1,0.117
0.156,1.055,0.094
0.211,1.004,0.07
0.195,0.973,0.004
0.109,0.898,0.012
0.051,0.973,0.027
0.105,1.082,0.039
0.145,1.008,0.008
0.156,0.926,-0.008
0.129,0.93,-0.008
0.094,0.977,-0.008
0.094,0.992,-0.016
0.125,0.98,-0.02
0.156,0.988,-0.016
0.172,0.969,-0.012
0.164,0.965,-0.016
0.141,0.988,-0.016
0.137,0.996,-0.012
0.145,0.988,-0.016
0.152,0.984,-0.012
0.16,0.969,-0.016
0.164,0.977,-0.016
0.164,0.977,-0.012
0.16,0.977,-0.012
0.148,0.984,-0.016
0.137,0.98,-0.008
0.141,0.973,-0.012
0.125,0.953,-0.012
0.137,0.961,-0.012
0.16,0.988,-0.008
0.176,0.996,-0.008
0.164,0.98,-0.016
0.156,0.969,-0.012
0.148,0.969,-0.012
0.152,0.965,-0.012
0.156,0.977,-0.012
0.164,0.977,-0.008
0.156,0.98,-0.012
0.16,0.977,-0.016
0.168,0.969,-0.012
0.168,0.984,-0.012
0.164,0.98,-0.012
0.156,0.973,-0.012
0.156,0.969,-0.008
0.16,0.977,-0.008
0.164,0.98,-0.004
0.168,0.977,-0.012
0.164,0.973,-0.004
0.16,0.98,-0.004
0.156,0.973,-0.008
0.156,0.969,-0.008
0.156,0.98,0
0.148,0.977,0
0.133,0.977,0
0.133,0.977,-0.004
0.145,0.969,0
0.133,0.984,0.012
0.129,0.984,0.012
0.125,0.977,0.012
0.125,0.973,0.008
0.133,0.969,0.02
0.129,0.977,0.02
0.125,0.973,0.02
0.098,0.949,-0.008
0.117,0.973,-0.016
0.152,1.043,-0.02
0.109,1.059,-0.031
-0.008,0.992,-0.047
-0.055,0.926,-0.066
0.039,0.961,-0.082
0.207,1.074,-0.063
0.34,1.148,-0.051
0.23,1.023,-0.098
0.098,0.918,-0.121
0.07,0.863,-0.141
0.117,0.824,-0.164
0.188,0.813,-0.199
0.223,0.836,-0.207
0.25,0.902,-0.191
0.223,0.922,-0.23
0.199,1.039,-0.258
0.238,1.031,-0.273
0.07,1.063,-0.238
-0.09,1.395,-0.07
-0.09,1.148,0.09
-0.184,0.902,-0.004
-0.211,0.918,0.18
-0.129,1.129,0.215
0.074,1.148,0.211
0.184,1.02,0.137
0.145,0.863,0.121
0.055,0.832,0.113
0.004,0.824,0.094
-0.008,0.852,0.09
0.09,0.895,0.105
0.188,0.871,0.109
0.227,0.875,0.086
0.246,0.984,0.051
0.285,1.016,0.008
0.246,1.152,-0.047
0.262,1.133,0.109
0.184,0.984,0.258
-0.043,0.867,0.07
0.047,0.824,-0.016
0.277,0.996,0.031
0.391,1.223,0.125
0.207,1.121,0.168
0.09,0.918,0.094
0.07,0.781,0.078
0.094,0.734,0.137
0.078,0.828,0.156
0,0.879,0.141
0.016,0.777,0.047
0.105,0.785,0.082
0.09,1.012,0.313
-0.281,1.148,0.492
-0.102,1.148,0.504
0.164,0.984,0.352
0.188,0.977,0.402
0.063,1.125,0.531
0.023,1.066,0.461
0.125,0.93,0.414
0.199,0.934,0.457
0.156,0.945,0.523
0.086,0.918,0.551
0.027,0.863,0.535
0.008,0.84,0.523
0.023,0.855,0.516
0.047,0.898,0.516
0.059,0.953,0.527
0.086,0.922,0.531
0.082,0.891,0.543
0.09,0.867,0.5
0.105,0.902,0.488
0.145,0.898,0.449
0.176,0.898,0.43
0.168,0.887,0.445
0.156,0.879,0.445
0.109,0.852,0.449
0.102,0.809,0.43
0.121,0.781,0.395
0.152,0.785,0.371
0.172,0.777,0.344
0.082,0.809,0.164
-0.082,0.801,0.238
0.074,1.184,0.227
-0.152,1.281,0.301
-0.137,1.375,0.063
0.078,1.367,0.02
0.152,1.09,-0.047
0.07,0.883,-0.043
-0.012,0.848,-0.008
-0.004,0.793,0.027
0.027,0.668,-0.016
0.105,0.629,-0.059
0.195,0.695,-0.066
0.195,0.758,-0.051
0.164,0.859,-0.07
0.152,1.082,-0.043
0.199,1.23,-0.07
0.32,1.148,-0.164
0.477,0.992,-0.281
0.125,1.145,-0.148
-0.074,1.438,0.27
-0.301,1.199,0.117
-0.242,0.84,-0.074
0.02,0.75,0.023
0.121,1.086,0.102
0.262,1.18,0.18
0.18,0.922,0.109
0.078,0.738,0.074
0.043,0.703,0.105
0.082,0.719,0.09
0.23,0.813,0.105
0.301,0.918,0.113
0.238,0.922,0.129
0.066,1.016,0.109
0.074,1.078,0.09
0.195,1.094,0.031
0.199,1.148,0.027
0.266,1.273,0.141
0.34,1.203,0.211
0.098,0.988,0.137
-0.047,0.82,-0.027
0.059,1.012,-0.047
0.199,1.34,0.031
0.203,1.223,0.047
0.172,0.879,-0.031
0.184,0.652,-0.113
0.211,0.625,-0.133
0.156,0.676,-0.113
0.07,0.688,-0.117
0.082,0.66,-0.121
0.043,0.801,-0.09
-0.012,1.141,-0.039
0.148,1.309,0.016
0.602,1.117,-0.141
0.762,1.031,-0.242
0.41,1.141,-0.152
-0.137,1.363,0.152
-0.363,1.082,0.008
-0.305,0.672,-0.113
-0.16,0.754,0
-0.031,1.191,0.152
0.023,1.164,0.164
-0.012,0.918,0.078
-0.012,0.828,0.07
0.07,0.867,0.105
0.164,0.98,0.121
0.199,1.043,0.09
0.219,0.961,0.008
0.203,0.93,0
0.199,0.926,0.098
0.238,0.984,0.168
0.348,1.039,0.102
0.195,1.063,-0.176
0.164,1.223,-0.039
0.129,1.199,0.023
-0.027,1.086,-0.02
-0.07,0.945,-0.09
-0.047,0.754,-0.164
0,0.77,-0.199
0.023,0.988,-0.148
-0.012,1.047,-0.113
-0.008,1.004,-0.148
0.004,0.941,-0.188
0.047,0.938,-0.191
0.063,1.012,-0.16
0.066,0.953,-0.176
0.086,0.852,-0.195
0.078,0.84,-0.199
0.09,0.918,-0.152
0.074,0.977,-0.105
0.09,0.992,-0.105
0.098,1.023,-0.125
0.086,1.109,-0.105
0.078,1.078,-0.098
0.055,0.973,-0.09
0.035,0.945,-0.082
0.039,0.977,-0.055
0.043,1.016,-0.043
0.066,0.996,-0.039
0.059,0.98,-0.047
0.031,0.988,-0.039
0.008,0.996,-0.031
0.016,1.004,-0.02
0.008,1.004,-0.02
0.027,0.992,-0.043
0.051,0.977,-0.047
0.063,0.977,-0.047
0.063,0.98,-0.039
0.059,1,-0.035
0.047,0.984,-0.031
0.027,0.98,-0.023
0.031,0.992,-0.016
0.055,0.988,-0.02
0.059,0.988,-0.02
0.059,0.996,-0.016
0.055,0.996,-0.02
0.043,0.996,-0.02
0.051,0.992,-0.02
0.059,0.98,-0.016
0.059,0.992,-0.016
0.059,1,-0.016
0.059,0.992,-0.02
0.07,0.988,-0.02
0.07,1,-0.02
0.07,0.988,-0.02
0.07,0.988,-0.02
0.059,0.992,-0.016
0.047,0.988,-0.012
0.059,0.992,-0.012
0.063,0.992,-0.012
0.063,0.98,-0.012
0.059,0.992,-0.008
0.07,0.992,-0.012
0.07,0.984,-0.016
0.063,0.992,-0.012
0.063,0.984,-0.012
0.063,0.984,-0.012
0.074,0.988,-0.008
0.07,0.996,-0.008
0.066,0.988,-0.012
0.074,0.992,-0.008
0.102,0.977,-0.012
0.125,0.98,-0.008
0.137,0.988,0
0.145,0.984,0
0.152,0.992,0.016
0.105,0.992,0.023
0.016,0.992,0.031
-0.039,0.988,0.02
-0.035,1,0.008
-0.004,1.004,0
0.016,0.992,-0.012
0.047,0.992,-0.02
0.074,1.004,-0.016
0.125,0.984,-0.016
0.125,0.992,-0.016
0.09,0.988,-0.012
0.098,0.973,-0.023
0.129,0.965,-0.02
0.164,0.965,-0.035
0.172,1.004,-0.035
0.152,1.008,-0.031
0.16,0.988,-0.047
0.16,0.965,-0.051
0.184,0.961,-0.059
0.25,0.988,0.078
0.191,0.922,-0.145
0.18,0.645,-0.32
0.191,0.992,-0.012
0.195,1.07,0.113
0.156,0.938,0.023
0.223,0.949,0.109
0.242,0.977,0.25
0.219,0.91,0.234
0.234,0.965,0.262
0.25,0.961,0.293
0.227,0.957,0.34
0.203,0.961,0.227
0.168,0.965,0.152
0.137,0.938,0.051
0.148,0.922,0.023
0.164,0.961,0.031
0.176,0.98,0.016
0.16,1,0.012
0.145,1.004,0.016
0.117,0.953,-0.016
0.113,0.973,-0.012
0.125,1,0.004
0.129,0.949,-0.039
0.129,0.977,-0.016
0.141,1,-0.023
0.125,0.984,-0.031
0.055,0.953,-0.059
-0.043,0.941,-0.063
-0.012,0.957,-0.09
0.18,1,-0.133
0.426,1.09,-0.156
0.457,1.098,-0.133
0.203,0.98,-0.113
0.043,0.871,-0.133
0.012,0.898,-0.102
0.129,0.871,-0.109
0.191,0.867,-0.105
0.215,0.887,-0.094
0.188,0.941,-0.098
0.156,1.137,-0.004
0.137,1.164,0.016
-0.004,0.898,-0.086
-0.031,0.879,-0.055
-0.023,1.039,0.055
0.008,1.145,0.082
0.027,0.992,0.039
0.082,0.91,0.016
0.129,0.969,0.035
0.129,0.992,0.078
0.086,0.949,0.094
0.066,0.957,0.102
0.066,0.98,0.125
0.09,0.988,0.145
0.148,0.969,0.137
0.172,0.945,0.141
0.18,0.934,0.156
0.172,0.906,0.184
0.164,0.91,0.207
0.129,0.922,0.246
0.082,0.922,0.266
0.063,0.934,0.301
0.098,0.973,0.344
0.152,1.07,0.355
0.137,1.031,0.297
0.164,0.965,0.258
0.184,0.852,0.293
0.223,0.832,0.309
0.309,0.914,0.328
0.348,0.973,0.348
0.332,0.969,0.305
0.098,1.023,0.195
-0.129,1.309,0.102
-0.262,1.582,0.074
-0.336,1.371,0
-0.406,0.961,-0.195
-0.262,0.836,-0.137
-0.051,0.906,-0.145
-0.23,0.945,-0.18
-0.258,0.848,-0.23
-0.09,0.82,-0.227
-0.059,0.844,-0.258
-0.18,0.844,-0.281
-0.246,0.867,-0.301
-0.25,0.867,-0.297
-0.234,0.859,-0.301
-0.211,0.848,-0.32
-0.184,0.844,-0.328
-0.203,0.816,-0.324
-0.254,0.836,-0.332
-0.289,0.852,-0.336
-0.254,0.863,-0.301
-0.223,0.891,-0.316
-0.25,0.887,-0.293
-0.254,0.918,-0.293
-0.23,0.93,-0.27
-0.168,0.91,-0.281
-0.156,0.938,-0.273
-0.164,1.047,-0.207
-0.211,1.043,-0.207
-0.141,0.973,-0.219
0,0.945,-0.207
0.113,0.926,-0.168
0.141,0.902,-0.145
0.082,0.922,-0.109
-0.027,1,-0.082
-0.105,1.059,-0.078
-0.059,1.105,-0.039
0.043,1.141,-0.031
0.031,1.031,-0.09
-0.063,0.914,-0.125
0.008,1.016,-0.078
0.043,1.02,-0.098
0.039,1.043,-0.098
0.109,1.008,-0.078
0.164,0.969,-0.09
0.184,0.965,-0.082
0.215,0.965,-0.078
0.215,0.945,-0.07
0.211,0.961,-0.09
0.23,0.973,-0.102
0.27,1.027,0.02
0.25,0.969,-0.082
0.289,0.961,-0.086
0.273,0.996,-0.133
0.254,0.961,-0.121
0.234,0.941,-0.086
0.168,0.922,-0.105
0.207,0.902,-0.156
0.25,0.945,-0.027
0.258,0.934,-0.102
0.27,0.996,-0.07
0.266,0.953,-0.066
0.223,0.926,-0.086
0.227,0.949,0
0.215,0.996,-0.027
0.203,0.941,-0.004
0.191,0.859,0.004
0.227,1.027,0.09
0.191,1.008,0.07
0.152,0.926,0.086
0.191,0.973,0.055
0.176,0.945,0.098
0.211,1.059,0.133
0.152,0.949,0.082
0.145,0.859,0.105
0.152,0.969,0.113
0.137,1.023,0.172
0.176,1.008,0.105
0.168,0.883,0.066
0.121,0.973,0.129
0.137,0.996,0.129
0.168,0.918,0.027
0.102,0.906,0.066
0.164,1.004,0.203
0.215,1.051,0.164
0.168,0.949,0.094
0.152,0.934,0.129
0.203,0.98,0.168
0.258,1.012,0.211
0.156,0.922,0.09
0.254,0.945,0.137
0.23,0.957,0.211
0.234,0.918,0.043
0.293,0.973,0.254
0.309,0.965,0.191
0.23,0.969,0.172
0.262,1.031,0.227
0.23,0.941,0.059
0.16,0.965,0.102
0.184,0.934,0.094
0.234,0.898,0.195
0.203,0.84,0
0.16,0.957,0.109
0.184,0.969,0.09
0.195,0.957,0.109
0.199,0.961,0.117
0.203,0.965,0.141
0.203,0.965,0.148
0.199,0.957,0.148
0.199,0.965,0.156
0.18,0.965,0.148
0.176,0.953,0.148
0.168,0.969,0.145
0.195,0.883,0.074
0.203,0.992,0.156
0.156,0.945,0.18
0.188,0.93,0.133
0.184,0.922,0.156
0.207,0.887,0.133
0.258,0.898,0.18
0.301,0.953,0.336
0.484,0.969,0.301
0.484,0.891,-0.008
-0.219,0.887,-0.094
0.465,1.098,0.426
0.184,0.184,0.059
0.066,0.578,-0.227
0.18,0.91,0.035
0.211,0.977,0.074
0.219,0.996,0.105
0.188,0.977,0.117
0.176,0.961,0.098
0.195,0.977,0.105
0.207,0.977,0.125
0.227,0.953,0.113
0.207,0.953,0.109
0.195,0.953,0.113
0.207,0.969,0.117
0.203,0.965,0.113
0.203,0.965,0.109
0.23,0.961,0.109
0.199,1.039,0.164
0.199,0.98,0.109
0.18,0.98,0.133
0.219,0.969,0.105
0.188,0.945,0.109
0.199,0.965,0.113
0.172,0.961,0.121
0.176,0.961,0.117
0.199,0.973,0.129
0.223,1.063,0.199
0.219,1,0.141
0.184,0.902,0.105
0.172,0.953,0.113
0.219,0.934,0.09
0.16,0.797,-0.063
0.191,1.02,0.199
0.379,0.934,0.926
0.73,0.93,-0.309
0.445,0.313,0.184
0.207,0.734,-0.043
0.242,0.973,0.117
0.082,0.98,0.063
0.129,0.988,0.109
0.18,0.992,0.18
0.262,1.07,0.152
0.125,0.844,-0.027
0.211,1.004,0.129
0.223,0.977,-0.109
0.063,1.07,0.023
0.051,0.953,-0.125
-0.008,0.953,-0.176
0.461,0.891,-0.262
0.207,0.805,-0.23
0.262,0.848,-0.246
0.227,1.051,-0.227
0.426,0.797,0.039
0.473,0.707,0.125
0.176,0.973,0.547
0.258,1.117,0.551
0.047,0.438,-0.633
0.289,0.844,0.102
0.223,0.902,0.156
0.23,0.957,0.227
0.16,0.992,0.367
0.25,1.074,0.426
0.207,0.777,-0.031
0.199,1,0.168
0.223,0.758,0.016
0.211,1.004,0.016
0.238,0.898,0.016
0.152,1.008,0.105
0.176,0.922,0.023
0.152,0.934,0.02
0.164,0.957,0.023
0.164,1.066,0.09
0.297,0.844,0.008
0.234,0.746,0.012
0.285,0.918,0.016
0.391,0.91,0.105
0.34,0.848,-0.051
0.246,0.957,0.449
0.219,0.961,0.52
0.152,0.781,0.43
0.156,0.758,0.484
0.074,0.918,0.422
0.004,1.027,0.441
0.055,1.086,0.566
-0.148,1.59,1.469
0.125,0.648,-0.207
0.02,0.91,0.18
0.008,1.141,0.266
0,0.934,0.145
-0.137,1.344,0.934
0.059,0.715,-0.16
0.043,0.902,0.035
0.203,1.004,0.102
0.262,0.914,0.023
0.184,0.988,0.066
0.078,0.969,0.012
-0.023,0.926,-0.031
0,0.945,-0.004
0.051,1.008,0.027
0.094,0.883,0.02
0.281,1.074,0.238
0.246,1.043,0.141
0.156,0.98,0.109
0.184,0.914,0.02
0.281,0.891,-0.035
0.207,0.922,-0.027
0.152,0.91,-0.07
0.23,0.984,-0.02
0.258,0.992,-0.016
0.207,0.957,-0.023
0.156,1.051,0.047
0.125,0.969,-0.125
0.164,0.879,-0.023
0.113,0.926,0.02
0.098,1,-0.043
0.141,0.949,-0.086
0.195,1.023,-0.031
0.172,0.855,-0.031
0.188,1.051,-0.016
0.156,1.098,-0.012
0.184,0.91,-0.117
0.652,0.996,-0.285
0.383,0.82,-0.234
0.129,0.902,-0.172
0.117,0.914,-0.207
0.098,0.875,-0.262
0.02,0.914,-0.012
0.395,0.723,-0.668
0.039,0.93,-0.344
0.059,1.324,-0.246
-0.141,0.734,-0.344
0.707,0.59,0.008
0.043,0.383,0.363
0.012,0.75,0.734
-0.191,1.578,-0.105
-0.781,1.141,-0.531
0.914,0.246,-0.438
0.074,0.918,-0.688
0.063,1.23,-0.359
-0.051,1.133,-0.137
0.16,0.75,-0.277
0.133,0.828,-0.605
0.148,0.68,-0.789
-0.121,0.949,0.055
0.258,1.289,-0.047
0.309,0.5,-0.285
0.059,1.063,-0.281
0.258,1.367,-0.383
0.352,0.816,-0.375
0.723,0.18,0.16
0.152,0.996,0.117
-0.391,1.422,-0.09
0.207,0.461,0.16
0.262,1.121,-0.168
0.117,1.047,-0.02
-0.156,1.313,-0.094
0.02,0.98,0.109
-0.207,1.172,0
-0.246,1.23,-0.254
-0.254,1.469,0.32
0.141,0.691,0.496
0.012,0.738,0.266
-0.203,0.93,0.504
-0.172,0.984,0.188
0.031,0.574,0.641
0.207,0.773,1.191
-0.715,0.953,0.918
-0.102,0.914,0.938
-0.133,0.273,1.25
-0.07,0.418,0.84
-0.168,0.793,0.555
-0.574,1.48,1.09
0.324,0.063,0.242
0.137,0.625,0.457
-0.066,0.648,1.059
0.18,0.488,0.652
0.207,0.602,0.766
0.27,0.375,0.93
0.145,0.523,1.008
0.051,0.633,0.457
0.148,0.559,0.719
0.012,0.645,0.551
0.027,0.688,0.797
0.031,0.633,0.66
0.012,0.66,0.656
-0.059,0.902,0.727
0.168,0.48,0.77
-0.035,0.621,0.746
-0.012,0.699,0.844
0.047,0.688,0.707
0.008,0.582,0.82
0.039,0.57,0.879
-0.047,0.637,0.609
0.055,0.547,0.777
-0.141,0.625,0.734
0.309,0.125,1.191
0.086,0.402,0.938
0.105,0.508,0.785
-0.008,0.363,1.027
-0.047,0.27,0.875
-0.105,0.918,0.754
0.031,0.309,1.078
-0.066,0.277,1.082
-0.074,0.328,0.902
-0.109,0.199,0.938
-0.102,0.262,1
-0.148,0.313,1.098
-0.109,0.371,1.063
-0.016,0.301,0.887
-0.094,0.254,0.984
-0.219,0.262,1.031
-0.184,0.039,0.914
-0.156,0.078,0.91
-0.156,0.078,0.91
-0.156,0.078,0.91
-0.156,0.078,0.91
-0.156,0.078,0.91
-0.156,0.078,0.91
-0.156,0.078,0.91
-0.156,0.078,0.91
-0.156,0.078,0.91
-0.156,0.078,0.91
-0.156,0.078,0.91
-0.156,0.078,0.91
-0.156,0.078,0.91
-0.156,0.078,0.91
-0.156,0.078,0.91
-0.156,0.078,0.91
-0.156,0.078,0.91
-0.156,0.078,0.91
-0.156,0.078,0.91
-0.156,0.078,0.91
-0.156,0.078,0.91
-0.156,0.078,0.91
-0.156,0.078,0.91
-0.156,0.078,0.91
-0.156,0.078,0.91
-0.156,0.078,0.91
-0.156,0.078,0.91
-0.156,0.078,0.91
-0.156,0.078,0.91
-0.156,0.078,0.91
-0.156,0.078,0.91
0,0,0
0,0,0
0,0,0
0,0,0
0,0,0
0,0,0
0,0,0
0,0,0
0,0,0
0,0,0
0,0,0
0,0,0
0,0,0
0,0,0
0,0,0
0,0,0
0,0,0
0,0,0
0,0,0
0,0,0
0,0,0
0,0,0
0,0,0
0,0,0
0,0,0
0,0,0
0,0,0
0,0,0
0,0,0
0,0,0
0,0,0
0,0,0
0,0,0
0,0,0
0,0,0
0,0,0
0,0,0
0,0,0
0,0,0
0,0,0
0,0,0
0,0,0
0,0,0
0,0,0
0,0,0
0,0,0
0,0,0
0,0,0
0,0,0
0,0,0
0,0,0
0,0,0
0,0,0
0,0,0
0,0,0
0,0,0
0,0,0
0,0,0
0,0,0
0,0,0
0,0,0
0,0,0
0,0,0
0,0,0
0,0,0
0,0,0
0,0,0
0,0,0
0,0,0
0,0,0
0,0,0
0,0,0
0,0,0
0,0,0
0,0,0
0,0,0
0,0,0
0,0,0
0,0,0
0,0,0
0,0,0
0,0,0
0,0,0
0,0,0
0,0,0
0,0,0
0,0,0
0,0,0
0,0,0
0,0,0
0,0,0
0,0,0
0,0,0
0,0,0
0,0,0
0,0,0
0,0,0
0,0,0
0,0,0
0,0,0
0,0,0
0,0,0
0,0,0
0,0,0
0,0,0
0,0,0
0,0,0
0,0,0
0,0,0
0,0,0
0,0,0
0,0,0
0,0,0
0,0,0
0,0,0
0,0,0
0,0,0
0,0,0
0,0,0
0,0,0
0,0,0
0,0,0
0,0,0
0,0,0
0,0,0
0,0,0
0,0,0
0,0,0
0,0,0
0,0,0
0,0,0
0,0,0
0,0,0
0,0,0
0,0,0
0,0,0
0,0,0
0,0,0
0,0,0
0,0,0
0,0,0
0,0,0
0,0,0
0,0,0
0,0,0
0,0,0
0,0,0
0,0,0
0,0,0
0,0,0
0,0,0
0,0,0
0,0,0
0,0,0
0,0,0
0,0,0
0,0,0
0,0,0
0,0,0
0,0,0
0,0,0
0,0,0
0,0,0
0,0,0
0,0,0
0,0,0
0,0,0
0,0,0
0,0,0
0,0,0
0,0,0
0,0,0
0,0,0
0,0,0
0,0,0
0,0,0
0,0,0
0,0,0
0,0,0
0,0,0
0,0,0
0,0,0
0,0,0
0,0,0
0,0,0
0,0,0
0,0,0
0,0,0
0,0,0
0,0,0
0,0,0
0,0,0
0,0,0
0,0,0
0,0,0
0,0,0
0,0,0
0,0,0
0,0,0
0,0,0
0,0,0
0,0,0
0,0,0
0,0,0
0,0,0
0,0,0
0,0,0
0,0,0
0,0,0
0,0,0
0.063,0.852,0.137
0.254,0.734,0.266
0.285,0.727,0.176
0.484,0.828,0.363
0.434,0.578,0.156
0.383,0.598,0.207
0.895,0.238,0.309
0.547,0.832,0.105
0.781,0.313,0.363
0.785,0.387,0.254
0.633,0.613,0.344
0.824,0.629,0.406
0.773,0.559,0.199
0.664,0.574,0.316
0.695,0.551,0.102
0.434,0.859,0.004
0.488,0.801,0.023
0.484,0.672,-0.102
0.418,0.84,-0.086
0.637,0.84,0.051
0.207,1.02,0.129
0.391,0.867,0.109
0.512,0.754,-0.301
0.453,0.691,-0.184
0.371,0.922,0.152
0.184,0.996,-0.07
0.371,1.02,0.301
0.391,1.035,0.332
0.387,0.891,0.332
0.508,0.934,0.598
0.348,1.039,0.246
0.215,0.879,0.211
0.348,0.578,0.141
0.398,0.695,0.117
0.484,0.805,0.453
0.352,0.785,0.23
0.617,0.664,0.785
0.496,0.727,0.598
0.547,0.703,0.363
0.68,0.641,0.793
0.648,0.742,0.504
0.5,0.762,0.398
0.477,0.684,0.391
0.57,0.582,0.328
0.582,0.68,0.469
0.582,0.586,0.402
0.555,0.523,0.27
0.676,0.52,0.41
0.676,0.656,0.461
0.609,0.605,0.422
0.543,0.641,0.379
0.602,0.668,0.422
0.57,0.641,0.355
0.563,0.73,0.359
0.551,0.84,0.402
0.57,0.754,0.578
0.559,0.863,0.531
0.484,0.59,0.27
0.379,0.801,0.586
0.418,0.883,0.082
0.488,0.863,0.199
0.48,0.715,-0.066
0.371,0.832,0.199
0.422,0.934,0.16
0.484,0.773,0.176
0.508,0.746,0.293
0.57,0.766,0.176
0.734,0.711,0.332
0.648,0.613,0.105
0.645,0.715,0.18
0.613,0.805,0.289
0.547,0.84,0.281
0.563,0.797,0.176
0.801,0.504,0.066
0.738,0.613,0.211
0.68,0.766,0.359
0.73,0.605,0.148
0.629,0.582,0.227
0.668,0.52,0.082
0.691,0.59,0.121
0.734,0.602,0.129
0.754,0.598,0.117
0.758,0.703,0.223
0.723,0.598,0.191
0.758,0.523,0.109
0.688,0.609,0.203
0.707,0.813,0.184
0.793,0.621,0.109
0.773,0.496,0.152
0.785,0.531,0.074
0.75,0.535,0.125
0.859,0.465,0.125
0.66,0.691,0.242
0.703,0.5,0.016
0.734,0.508,0.094
0.582,0.754,0.176
0.68,0.742,0.207
0.664,0.711,0.16
0.598,0.805,0.172
0.602,0.684,0.203
0.609,0.801,0.199
0.445,0.922,0.145
0.52,0.629,0.121
0.621,0.676,0.25
0.586,0.855,0.344
0.664,0.684,0.258
0.578,0.66,0.246
0.742,0.605,0.457
0.727,0.652,0.414
0.766,0.555,0.332
0.75,0.551,0.371
0.645,0.578,0.371
0.734,0.484,0.281
0.75,0.477,0.215
0.754,0.551,0.41
0.832,0.516,0.332
0.789,0.559,0.258
0.746,0.574,0.207
0.676,0.648,0.262
0.664,0.711,0.316
0.625,0.707,0.184
0.586,0.758,0.227
0.648,0.66,0.172
0.684,0.609,0.133
0.688,0.668,0.266
0.676,0.711,0.289
0.031,1.535,0.406
0.676,0.531,-0.035
0.727,0.66,0.203
0.855,0.754,0.465
0.746,0.313,0.066
0.434,0.738,-0.047
0.613,0.543,0.207
0.523,0.719,0.316
0.469,0.984,0.332
0.527,0.867,0.25
0.422,0.926,0.262
0.434,0.926,0.273
0.469,0.773,0.215
0.492,0.609,0.234
0.496,0.762,0.277
0.508,0.73,0.258
0.445,0.828,0.25
0.516,0.844,0.328
0.684,0.637,0.352
0.641,0.641,0.313
0.656,0.582,0.234
0.633,0.645,0.426
0.684,0.582,0.277
0.676,0.641,0.234
0.715,0.668,0.313
0.215,1.676,-0.555
0.723,0.414,-0.406
0.797,0.504,0.031
0.836,0.887,0.688
0.734,0.695,0.352
0.734,0.445,0.105
0.672,0.391,0.039
0.48,0.707,0.223
0.535,0.695,0.301
0.547,0.754,0.246
0.461,0.945,0.285
0.484,0.879,0.277
0.406,0.844,0.141
0.367,0.844,0.059
0.281,0.961,0.105
0.281,0.934,0.098
0.27,0.914,0.039
0.25,0.969,0.059
0.273,0.965,0.09
0.234,1.023,0.07
0.371,0.895,0.066
0.324,0.922,0.051
0.348,0.93,0.137
0.406,0.879,0.145
0.422,0.855,0.078
0.402,0.902,0.121
0.473,0.801,0.125
0.543,0.754,0.148
0.391,0.91,0.145
0.438,0.891,0.172
0.508,0.809,0.18
0.371,0.906,0.137
0.406,0.824,-0.219
0.418,0.871,0.184
0.414,0.848,0.191
0.406,0.91,0.191
0.41,0.887,0.152
0.457,0.824,0.199
0.41,0.871,0.176
0.383,0.891,0.176
0.348,0.852,0.121
0.324,0.895,0.148
0.332,0.871,0.191
0.258,0.918,0.164
0.258,0.949,0.215
0.301,0.922,0.238
0.242,0.965,0.199
0.266,0.867,0.199
0.27,0.938,0.273
0.238,0.977,0.258
0.328,0.859,0.277
0.262,0.91,0.301
0.348,0.879,0.41
0.391,0.75,0.277
0.336,0.754,0.266
0.336,0.82,0.43
0.5,0.789,0.527
0.504,0.805,0.449
0.383,0.863,0.395
0.547,0.762,0.555
0.523,0.711,0.457
0.559,0.609,0.391
0.59,0.629,0.414
0.613,0.688,0.508
0.633,0.727,0.551
0.738,0.488,0.25
0.691,0.438,0.16
0.73,0.516,0.422
0.688,0.547,0.426
0.551,0.672,0.391
0.637,0.676,0.52
0.699,0.539,0.391
0.59,0.559,0.27
0.586,0.637,0.422
0.641,0.609,0.379
0.605,0.703,0.418
0.543,0.754,0.461
0.605,0.637,0.441
0.586,0.719,0.41
0.59,0.715,0.414
0.66,0.535,0.27
0.586,0.672,0.375
0.66,0.641,0.527
0.625,0.684,0.352
0.688,0.578,0.313
0.727,0.605,0.355
0.727,0.559,0.395
0.75,0.488,0.266
0.805,0.535,0.402
0.926,0.207,0.309
0.77,0.281,-0.02
0.855,0.445,0.223
0.867,0.484,0.301
0.867,0.461,0.246
0.82,0.469,0.164
0.805,0.461,0.176
0.859,0.461,0.316
0.836,0.418,0.168
0.727,0.375,0.008
0.785,0.395,0.281
1.051,0.332,0.461
0.75,0.441,0.137
0.602,0.551,0.266
0.781,0.656,0.484
0.785,0.699,0.477
0.813,0.566,0.383
0.785,0.492,0.332
0.77,0.551,0.426
0.629,0.598,0.199
0.758,0.445,0.238
0.738,0.441,0.262
0.82,0.52,0.281
0.871,0.523,0.23
0.82,0.453,0.234
0.805,0.504,0.152
0.895,0.375,0.141
0.875,0.453,0.234
0.84,0.523,0.145
0.746,0.648,0.129
0.914,0.348,0.184
0.832,0.422,0.094
0.832,0.477,0.145
0.867,0.398,0.148
0.957,0.434,0.484
0.977,0.332,0.086
0.879,0.363,-0.09
0.918,0.367,0.133
0.992,0.305,0.051
0.926,0.383,0.051
0.891,0.402,-0.004
0.902,0.324,-0.023
0.871,0.344,-0.078
0.914,0.285,-0.031
0.98,0.34,-0.008
1.09,0.301,0.051
0.969,0.297,-0.066
0.98,0.246,-0.102
0.957,0.254,-0.094
0.93,0.23,0.023
0.734,0.332,-0.098
0.891,0.277,0.008
1.117,0.211,0.137
0.816,0.434,-0.016
0.992,0.32,0.039
0.797,0.363,0.012
0.859,0.461,0.227
0.953,0.465,0.227
0.969,0.422,0.23
0.977,0.359,0.176
0.926,0.434,0.168
0.879,0.426,0.148
0.867,0.301,0.074
0.766,0.512,0.223
0.82,0.418,0.141
0.871,0.398,0.137
0.848,0.527,0.219
0.945,0.395,0.07
0.895,0.484,0.172
0.867,0.387,0.094
0.871,0.426,0.066
0.887,0.492,0.242
0.875,0.391,0.016
0.895,0.285,-0.039
1.148,0.023,-0.078
1.223,0.016,-0.172
0.844,0.07,-0.043
0.676,0.039,0.379
0.289,0.207,0.258
-0.23,0.387,0.188
0.191,0.508,0.879
0.699,0.309,1.223
0.543,0.516,0.961
0.531,0.414,0.852
0.887,0.152,1.078
0.836,0.195,0.93
0.582,0.461,0.879
0.566,0.508,0.918
0.531,0.422,0.887
0.461,0.5,0.848
0.496,0.492,0.633
0.344,0.602,0.637
0.129,0.465,0.297
0.371,0.82,0.543
-0.215,1.148,0.387
0.133,0.949,0.551
-0.336,1.074,0.195
-0.563,1.32,0.043
-0.328,1.023,0.195
-0.223,1.031,0.555
-0.375,1.008,-0.129
-0.145,0.898,0.137
0.016,0.426,0.715
-0.242,1.074,0.148
1.387,0.477,0.98
0.289,0.645,0.73
0.887,0.434,0.164
0.75,0.699,0.266
1.266,0.531,0.305
1.172,0.535,0.078
0.043,0.582,0.234
-0.004,0.891,-0.105
0.168,1.008,-0.227
-0.016,0.82,0.016
-0.063,0.926,0.133
-0.027,0.895,0.117
0.145,0.625,-0.008
0.047,0.871,-0.43
-0.254,0.863,-0.578
-0.344,1.047,0.387
0,1.246,0
-0.184,0.977,0.117
-0.344,0.895,0.266
-0.242,1.086,0.172
-0.316,0.922,0.125
-0.422,0.906,0.379
-0.285,1.047,0.207
-0.164,1.063,0.156
0.027,1.25,0.07
0.379,1.309,-0.223
0.559,1.293,-0.453
0.434,1.25,-0.273
-0.004,1.086,-0.414
-0.336,0.988,-0.215
-0.602,0.605,-0.469
-0.398,0.777,0.012
-0.664,0.551,-0.469
-0.391,0.648,0.012
-0.035,1.004,-0.145
0.293,1.055,-0.566
-0.105,0.961,0.059
-0.23,0.988,0.605
-0.457,1.082,0.238
-0.141,0.777,0.059
-0.137,1.168,0.168
-1.68,0.973,-0.152
0.586,1.254,0.156
-0.832,1.242,-0.273
0.285,0.469,0.434
0.301,0.641,0.395
-0.32,0.559,0.457
-0.258,0.734,0.191
0.043,1.609,0.027
0.352,0.688,0.656
-0.066,0.77,0.531
-0.16,0.367,1.211
1.031,1.75,-0.023
-0.484,0.863,0.781
0.352,0.047,-0.031
0.387,0.633,1.266
-0.215,0.586,1.07
0.996,0.965,0.68
-0.266,0.109,0.926
-0.477,-0.156,0.18
-0.488,-0.117,0.848
0.074,-0.543,1.621
0.531,-0.941,1.461
-0.102,-0.629,0.668
0.066,-0.648,0.926
0.184,-0.688,0.969
0.008,-0.469,0.188
-0.129,-0.703,1.023
-0.102,-0.688,1.242
0.301,-0.77,0.59
0.254,-0.496,0.855
-0.121,-0.18,0.949
0.066,-0.551,0.797
0.191,-0.504,0.891
0.309,-0.477,1.063
-0.258,-0.371,0.859
0.137,-0.402,0.77
0.391,-0.199,1.102
0.309,0.012,1.383
0.129,0.086,1.324
-0.012,-0.281,1.563
0.605,-0.879,0.371
0.617,0.508,-0.234
0.621,0.277,0.059
0.418,0.758,2.313
0.219,1.43,1.609
0.262,-0.355,-0.426
0.027,0.008,-0.641
0.051,0.664,-0.309
0.496,0.262,-1.031
0.09,0.91,0.375
0.266,0.988,-0.133
0.605,1.105,0.008
-0.285,1.066,0.531
-0.254,1.105,-0.504
-0.012,1.051,-0.414
-0.063,0.961,0.016
0.004,0.902,0.273
-0.145,1.07,-0.027
-0.023,1.121,0.09
0.012,1.027,-0.047
0.066,0.961,-0.012
0.047,0.992,-0.047
0,1.004,-0.098
-0.016,0.973,-0.113
-0.105,0.949,-0.109
-0.07,0.945,-0.07
-0.039,0.941,-0.078
0.023,1.035,-0.02
0.063,1.035,-0.023
0.02,1.004,-0.059
-0.051,0.965,-0.086
-0.043,1.008,-0.07
0.031,1.035,-0.051
0.035,0.977,-0.078
-0.004,0.957,-0.086
-0.016,0.969,-0.078
-0.02,1.008,-0.066
0.004,1.023,-0.051
-0.004,0.984,-0.078
0,0.965,-0.082
-0.012,1,-0.082
-0.02,1.027,-0.066
-0.016,0.992,-0.074
0.004,0.965,-0.086
0.004,0.965,-0.086
0.016,0.965,-0.078
0.02,0.988,-0.098
0.027,0.961,-0.078
0.023,1,-0.094
-0.008,0.992,-0.098
0.012,0.996,-0.078
-0.008,0.984,-0.086
0.012,0.984,-0.078
0.012,1.02,-0.07
-0.016,0.984,-0.078
0,0.98,-0.078
0.027,0.988,-0.09
-0.023,0.969,-0.09
-0.023,0.977,-0.082
-0.059,0.984,-0.066
-0.047,0.984,-0.074
-0.039,1.004,-0.07
-0.035,1,-0.059
-0.031,0.996,-0.066
-0.031,0.988,-0.07
-0.02,1.008,-0.055
-0.063,0.973,-0.078
-0.082,0.965,-0.078
-0.07,1.016,-0.059
-0.043,0.988,-0.055
-0.008,0.996,-0.063
-0.035,1.004,-0.066
-0.043,1.023,-0.066
-0.051,0.98,-0.059
-0.055,0.984,-0.074
-0.023,1.008,-0.063
-0.02,0.98,-0.066
-0.059,0.973,-0.063
-0.043,1.008,-0.051
-0.02,1.004,-0.055
-0.039,0.977,-0.074
-0.055,0.984,-0.078
-0.047,1.004,-0.055
-0.063,1.012,-0.055
-0.055,0.973,-0.074
-0.078,1.02,-0.066
-0.035,1.047,-0.055
-0.035,0.984,-0.066
-0.043,0.98,-0.066
-0.066,0.969,-0.066
-0.059,0.973,-0.074
-0.027,1.02,-0.066
-0.031,1.023,-0.07
-0.043,1,-0.07
-0.09,0.957,-0.07
-0.152,0.988,-0.063
-0.113,0.961,-0.082
-0.105,0.988,-0.078
-0.129,1,-0.043
0.043,1.016,-0.051
0.027,0.977,-0.09
-0.043,0.961,-0.09
-0.039,1.02,-0.031
-0.113,1.035,-0.051
-0.137,0.953,-0.094
-0.051,0.949,-0.086
-0.078,0.996,-0.078
-0.105,0.996,-0.09
-0.098,0.992,-0.09
-0.094,0.988,-0.098
-0.152,1.004,-0.07
-0.113,1.008,-0.059
-0.047,0.965,-0.09
-0.055,0.961,-0.074
-0.082,1.012,-0.051
-0.195,1.008,-0.09
-0.133,1.051,-0.004
-0.008,0.984,-0.043
-0.148,0.914,-0.109
-0.102,1.051,-0.012
-0.051,1,-0.078
-0.086,1.008,-0.094
-0.035,0.996,-0.031
-0.152,1.094,-0.023
-0.051,0.93,-0.133
-0.063,0.941,-0.098
0.055,1.004,-0.02
0.109,1.008,0
-0.117,0.938,-0.168
-0.281,0.992,-0.094
-0.23,1,-0.086
-0.113,0.977,-0.086
-0.035,0.996,-0.078
-0.047,0.91,-0.102
-0.063,1.004,-0.078
-0.137,1.035,-0.031
-0.164,1,0.016
-0.133,0.949,-0.008
-0.176,0.957,-0.066
-0.18,0.969,-0.055
-0.152,1.043,-0.055
-0.043,1.082,-0.035
-0.055,0.984,-0.078
-0.129,0.977,-0.086
-0.215,1.016,-0.082
-0.297,1.09,-0.078
-0.246,0.965,-0.031
-0.254,0.883,-0.063
0.047,1.09,-0.145
0.039,0.816,-0.238
0.227,0.516,-0.313
0.395,0.281,-0.172
0.191,1.543,-0.004
0.102,1.34,-0.168
0.219,1.082,-0.152
-0.219,0.902,-0.047
-0.164,0.707,-0.301
-0.113,0.922,-0.219
-0.109,0.941,-0.219
-0.082,1.004,-0.211
-0.063,0.906,-0.129
0.055,1.258,-0.039
0.238,1.094,0.125
0.145,1.121,0.098
0.133,1.094,0.113
0.016,0.902,0.121
0.238,1.203,0.176
0.016,1.113,0.227
0.043,0.699,-0.027
0.113,1.004,0.07
-0.004,0.867,0.074
0.203,0.879,-0.031
0.016,0.832,-0.063
-0.008,0.977,0.191
0.094,1.227,0.379
0.172,0.996,0.066
0.137,0.918,0.113
0.137,1.164,0.238
-0.027,1.012,0.152
0.254,0.84,0.023
0.051,0.91,0.129
0.176,0.945,0.035
0.203,0.965,0.102
0.051,1.113,0.172
-0.004,1.117,0.074
0.078,1.176,0.121
-0.074,1.121,0.094
-0.004,1.109,0.098
0.016,1.023,0.109
-0.09,1.004,0.059
0.27,1.813,0.203
-0.223,0.488,-0.102
-0.156,0.734,-0.168
-0.254,0.566,-0.145
-0.273,0.379,-0.344
-0.09,0.68,-0.246
-0.063,0.59,-0.191
-0.063,0.707,-0.148
0.016,1.176,0.035
-0.281,1.613,0.344
0.016,1.543,0.316
0.117,1.07,0.203
0.016,0.941,0.102
-0.129,0.988,0.102
-0.191,0.965,0.695
-0.031,0.699,-0.188
-0.109,1.281,0.238
-0.016,0.867,-0.086
-0.094,0.945,-0.129
0.004,0.949,-0.078
0,0.891,-0.227
0.055,1.168,-0.258
0.176,1.023,-0.285
0.328,1.402,-0.434
0.133,0.273,-0.449
-0.297,0.285,-0.309
0.125,0.836,-0.379
0.07,0.801,-0.398
-0.445,1.285,-0.84
-0.145,1.793,-0.297
-0.328,1.027,-0.473
-0.219,1.012,-0.328
-0.195,0.879,-0.316
-0.07,0.695,-0.301
-0.047,0.852,-0.262
-0.156,0.934,-0.246
-0.215,0.938,-0.23
-0.168,0.996,-0.23
-0.121,0.945,-0.227
-0.117,0.945,-0.223
-0.152,0.941,-0.223
-0.238,0.895,-0.219
-0.191,0.902,-0.215
-0.129,0.891,-0.199
0.023,1.016,-0.227
0.023,1.129,-0.18
-0.16,1.125,-0.16
-0.238,0.965,-0.148
-0.125,0.871,-0.188
-0.102,0.91,-0.168
-0.152,1.008,-0.141
-0.156,1.012,-0.117
-0.301,-0.02,-0.551
-0.258,1.09,0.129
-0.203,1.051,0.016
-0.266,0.797,-0.141
-0.207,1.043,0.066
-0.223,1.008,0.004
-0.191,1.07,0.008
-0.23,1.09,0.055
-0.102,1.063,-0.008
-0.102,1.129,-0.016
0.066,1.039,-0.023
0.047,1.094,-0.055
0.063,0.809,-0.121
0.129,0.863,-0.059
0.438,0.629,-0.152
-0.082,1.133,0.051
-0.027,1.082,0.055
0.113,1.031,0.031
0.105,0.961,-0.078
-0.039,1.164,-0.109
-0.168,0.98,-0.137
-0.113,1.156,-0.152
-0.031,1.145,-0.227
-0.02,0.957,-0.176
0.145,0.941,-0.293
0.09,0.859,-0.148
0.34,0.836,-0.215
0.27,1.066,-0.152
-0.012,0.988,-0.234
0.051,1.039,-0.48
0.125,0.668,-0.387
0.172,0.809,-0.172
0.09,0.906,-0.324
0.105,0.582,-0.645
-0.113,0.875,-0.59
0.141,0.691,-0.426
0.148,0.723,-0.418
0.043,0.902,-0.504
-0.008,1.051,-0.336
0.266,0.957,-0.168
-0.293,1.176,-0.309
-0.426,0.914,-0.332
-0.117,0.949,-0.313
-0.059,1.137,-0.332
-0.039,0.918,-0.387
0.086,0.879,-0.316
0.094,0.879,-0.313
-0.184,0.996,-0.352
0.031,1.07,-0.223
0.043,1.109,-0.355
0.023,0.738,-0.414
0.055,1.078,-0.273
0.102,1.199,0.078
0.219,1.063,-0.012
0.262,0.309,0.293
0.453,0.672,0.27
0.113,0.895,-0.48
-0.336,1.148,-0.523
0.02,1.148,-0.117
0.066,1.086,-0.145
-0.266,0.918,-0.371
-0.074,0.891,-0.195
0.371,1.07,-0.398
0.867,1.063,0.441
-0.07,0.773,-0.559
0.051,0.938,-0.254
-0.246,0.914,-0.219
-0.133,0.781,-0.301
0.012,0.918,-0.125
-0.074,0.762,-0.188
0.254,1.523,0.355
0.211,1.148,0.313
0.27,0.973,0.031
0.223,0.707,-0.488
-0.113,0.5,-0.523
-0.414,1.473,0.043
-0.109,0.848,0.035
-0.082,0.965,0.047
-0.051,0.973,0.09
-0.016,0.98,0.066
-0.027,1.016,0.07
-0.078,1.039,0.063
-0.105,1.02,0.047
-0.027,1.008,0.047
-0.066,1.012,0.082
-0.145,1.047,0.102
-0.082,1.004,0.074
-0.043,0.938,0.008
-0.066,0.992,0.004
-0.094,1.023,-0.008
-0.113,1.031,-0.047
-0.23,1.027,-0.063
-0.344,1.012,-0.098
-0.316,0.953,-0.145
-0.262,0.875,-0.188
-0.238,0.887,-0.219
-0.23,0.922,-0.203
-0.203,0.844,-0.133
-0.168,0.813,-0.078
-0.176,0.797,-0.063
-0.285,0.789,0.016
-0.43,1.066,0.121
-0.711,1.23,0.176
-0.668,0.906,0.059
-0.449,0.707,0.008
-0.453,0.875,0.117
-0.461,1.004,0.172
-0.402,0.957,0.133
-0.414,0.891,0.105
-0.43,0.871,0.121
-0.449,0.898,0.125
-0.438,0.91,0.109
-0.41,0.91,0.098
-0.402,0.926,0.105
-0.398,0.93,0.094
-0.414,0.926,0.086
-0.434,0.91,0.074
-0.418,0.918,0.082
-0.418,0.918,0.082
-0.43,0.91,0.082
-0.418,0.906,0.082
-0.395,0.902,0.07
-0.387,0.922,0.078
-0.387,0.926,0.078
-0.406,0.926,0.074
-0.398,0.93,0.07
-0.402,0.922,0.074
-0.398,0.918,0.066
-0.41,0.926,0.078
-0.422,0.91,0.078
-0.395,0.914,0.055
-0.402,0.93,0.074
-0.422,0.926,0.09
-0.414,0.914,0.082
-0.398,0.91,0.078
-0.398,0.906,0.082
-0.414,0.914,0.07
-0.395,0.906,0.074
-0.398,0.918,0.086
-0.422,0.902,0.094
-0.473,0.895,0.074
-0.504,0.953,0.109
-0.5,0.926,0.113
-0.465,0.922,0.102
-0.434,0.922,0.109
-0.41,0.918,0.102
-0.363,0.922,0.086
-0.355,0.93,0.078
-0.375,0.934,0.078
-0.395,0.934,0.051
-0.402,0.941,0.043
-0.41,0.906,0.031
-0.418,0.918,0.023
-0.414,0.902,0.023
-0.414,0.918,0.004
-0.406,0.891,-0.016
-0.391,0.906,-0.02
-0.391,0.934,-0.02
-0.371,0.961,-0.043
-0.355,0.938,-0.031
-0.383,0.977,-0.023
-0.383,0.941,-0.039
-0.363,0.918,-0.035
-0.383,0.922,-0.012
-0.426,0.922,-0.012
-0.43,0.906,-0.016
-0.402,0.895,-0.016
-0.387,0.922,0
-0.414,0.945,0.008
-0.426,0.93,0
-0.395,0.922,0
-0.383,0.934,0.016
-0.379,0.934,0.004
-0.348,0.934,-0.012
-0.289,0.93,-0.02
-0.262,0.941,-0.016
-0.289,0.965,-0.016
-0.281,0.973,-0.016
-0.281,0.957,-0.039
-0.258,0.945,-0.051
-0.242,0.941,-0.051
-0.258,0.926,-0.074
-0.285,0.996,-0.07
-0.207,1.051,-0.051
-0.16,1.012,-0.094
-0.152,0.977,-0.117
-0.148,0.984,-0.141
-0.207,1.039,-0.117
-0.246,1.016,-0.137
-0.219,0.949,-0.148
-0.137,0.945,-0.152
-0.047,0.992,-0.141
0.008,1.02,-0.137
-0.004,0.953,-0.172
-0.063,0.926,-0.191
-0.078,0.949,-0.199
-0.07,0.984,-0.199
-0.043,0.973,-0.23
0.051,0.953,-0.25
0.137,0.973,-0.246
0.051,1.027,-0.219
-0.152,0.961,-0.207
-0.176,0.855,-0.242
-0.109,0.855,-0.246
-0.086,0.914,-0.23
-0.082,0.848,-0.273
-0.086,0.938,-0.273
-0.031,1.133,-0.184
-0.066,1.215,-0.121
0.055,0.957,-0.152
0.027,0.855,-0.156
-0.176,0.984,0
-0.488,1.043,0.098
-0.547,0.996,0.113
-0.352,0.973,0.176
-0.105,0.961,0.203
0.059,0.973,0.145
0.129,1.012,0.082
0.059,1.051,0.059
-0.051,1.004,0.035
-0.078,0.996,0.02
-0.035,0.988,0.02
0,0.965,0.004
0.023,0.957,-0.004
0.055,0.992,0.012
0.094,1.027,-0.008
0.09,1.004,-0.016
0.074,0.969,-0.027
0.02,0.938,-0.031
-0.043,0.973,-0.012
-0.141,1.016,-0.09
-0.121,1.262,0.016
0.078,1.316,0.063
0.055,1.035,0.012
-0.07,0.836,-0.074
-0.039,0.934,-0.117
0.082,1.082,-0.121
0.078,1.082,-0.125
0.004,1.004,-0.113
0.043,0.93,-0.133
0.051,0.871,-0.176
0.063,0.875,-0.188
-0.012,0.938,-0.184
-0.105,0.953,-0.188
-0.117,0.988,-0.176
-0.008,0.969,-0.207
0.055,0.941,-0.254
0.012,0.965,-0.254
-0.039,0.988,-0.211
-0.047,0.941,-0.191
-0.027,0.941,-0.191
-0.012,0.992,-0.168
-0.027,0.973,-0.156
-0.09,0.938,-0.168
-0.117,0.953,-0.156
-0.09,0.977,-0.145
-0.074,0.992,-0.133
-0.039,1.004,-0.117
-0.047,1,-0.113
-0.07,0.988,-0.09
-0.051,0.965,-0.09
-0.047,0.984,-0.09
-0.047,0.953,-0.094
-0.055,0.973,-0.102
-0.039,0.992,-0.102
-0.086,1.012,-0.063
-0.105,1.023,-0.07
-0.09,1.008,-0.086
-0.059,1.004,-0.063
-0.086,0.996,-0.059
-0.086,0.973,-0.063
-0.063,0.992,-0.063
-0.055,1.016,-0.047
-0.082,0.977,-0.066
-0.086,1.012,-0.059
-0.102,0.984,-0.055
-0.098,0.984,-0.063
-0.098,1,-0.047
-0.105,0.996,-0.051
-0.113,0.965,-0.059
-0.109,0.988,-0.055
-0.098,0.992,-0.051
-0.105,1,-0.055
-0.117,0.984,-0.051
-0.117,0.977,-0.051
-0.102,0.98,-0.055
-0.105,0.984,-0.047
-0.121,0.996,-0.031
-0.109,1,-0.035
-0.09,0.98,-0.063
-0.121,0.992,-0.078
-0.125,0.977,-0.078
-0.113,1.039,-0.09
-0.125,1.035,-0.109
-0.117,1,-0.086
-0.117,0.969,-0.055
-0.121,0.965,-0.047
-0.098,0.973,-0.043
-0.082,0.961,-0.066
-0.086,0.992,-0.07
-0.102,1.004,-0.055
-0.094,1,-0.063
-0.047,0.969,-0.086
-0.012,1.031,-0.125
-0.07,1.051,-0.07
-0.074,0.961,-0.066
-0.07,0.988,-0.074
-0.078,0.965,-0.059
-0.102,0.941,-0.063
-0.094,0.984,-0.07
-0.051,1,-0.098
-0.059,1.035,-0.082
-0.105,1.008,-0.07
-0.105,0.996,-0.07
-0.09,0.988,-0.082
-0.09,0.98,-0.066
-0.086,0.984,-0.059
-0.074,0.988,-0.055
-0.129,0.992,-0.047
-0.152,0.961,-0.043
-0.152,0.949,-0.055
-0.117,0.953,-0.023
-0.098,0.984,-0.039
-0.113,1.023,-0.051
-0.133,1.023,-0.051
-0.125,1.039,-0.066
-0.199,0.977,-0.055
-0.129,0.996,-0.066
-0.109,0.992,-0.051
-0.043,1,-0.066
-0.039,0.984,-0.059
-0.023,1.008,-0.066
-0.039,0.961,-0.07
-0.023,0.988,-0.055
-0.023,1.008,-0.055
-0.055,1.004,-0.051
-0.082,0.977,-0.059
-0.086,0.984,-0.051
-0.105,1.004,-0.047
-0.117,0.988,-0.047
-0.113,0.973,-0.047
-0.109,0.984,-0.047
-0.098,1.016,-0.039
-0.086,0.992,-0.047
-0.086,0.98,-0.047
-0.086,0.984,-0.039
-0.098,0.988,-0.027
-0.117,0.992,-0.027
-0.129,0.984,-0.027
-0.117,0.992,-0.027
-0.102,0.992,-0.027
-0.109,1,-0.023
-0.094,0.988,-0.027
-0.117,0.992,-0.027
-0.121,0.988,-0.023
-0.113,0.992,-0.023
-0.109,0.984,-0.02
-0.102,0.996,-0.016
-0.102,1.004,-0.02
-0.109,0.996,-0.02
-0.113,0.984,-0.016
-0.105,0.992,-0.016
-0.098,0.988,-0.02
-0.113,0.988,-0.023
-0.121,1,-0.02
-0.117,1.016,-0.027
-0.137,0.988,-0.02
-0.117,0.941,-0.027
-0.07,0.988,-0.004
-0.031,1,0.004
-0.113,0.977,0
-0.113,0.992,-0.035
-0.129,0.945,-0.086
-0.141,0.98,-0.078
-0.125,1.027,-0.074
-0.098,1.043,-0.023
-0.113,0.984,-0.043
-0.141,0.965,-0.047
-0.148,0.953,-0.055
-0.168,1.012,-0.027
-0.156,0.996,-0.031
-0.164,0.977,-0.047
-0.129,1.008,-0.043
-0.129,1,-0.051
-0.164,0.992,-0.063
-0.129,0.965,-0.059
-0.129,0.988,-0.074
-0.063,1.008,-0.059
-0.074,0.992,-0.039
-0.07,0.977,-0.059
-0.027,0.992,-0.031
-0.039,0.98,-0.031
-0.078,0.988,-0.031
-0.129,0.969,-0.035
-0.172,0.977,-0.039
-0.16,0.98,-0.063
-0.141,1,-0.051
-0.125,0.98,-0.059
-0.145,0.996,-0.059
-0.137,0.984,-0.055
-0.117,0.996,-0.066
-0.094,0.988,-0.078
-0.137,0.98,-0.066
-0.137,1,-0.047
-0.02,1.035,-0.035
-0.02,0.988,-0.086
-0.137,0.941,-0.09
-0.188,0.988,-0.027
-0.137,0.957,-0.059
-0.09,0.961,-0.09
-0.051,1.02,-0.02
0.023,1.055,-0.031
0.02,1.004,-0.074
-0.191,0.902,-0.113
-0.148,0.957,-0.078
0,1.051,-0.039
0.051,0.98,-0.102
-0.008,0.965,-0.109
-0.082,0.984,-0.078
-0.129,1.004,-0.098
-0.129,1.02,-0.105
-0.09,1,-0.102
-0.082,0.977,-0.086
-0.059,0.992,-0.07
-0.055,0.988,-0.066
-0.051,0.984,-0.063
-0.113,1.02,-0.051
-0.164,0.996,-0.047
-0.18,1.012,-0.047
-0.23,0.996,-0.051
-0.207,0.992,-0.055
-0.137,0.98,-0.066
-0.082,0.992,-0.082
-0.098,1.012,-0.059
-0.125,1.016,-0.012
-0.078,0.992,-0.023
-0.066,0.973,-0.051
-0.066,0.988,-0.055
-0.113,0.973,-0.035
-0.078,0.996,-0.078
-0.113,0.977,-0.09
-0.129,0.984,-0.09
-0.137,0.992,-0.086
-0.102,0.996,-0.098
-0.074,0.996,-0.102
-0.09,0.996,-0.09
-0.09,0.984,-0.098
-0.086,0.934,-0.102
-0.113,0.957,-0.09
-0.098,0.988,-0.066
-0.063,0.98,-0.043
-0.016,0.984,-0.02
-0.059,1.023,-0.008
-0.094,1.059,0
-0.145,1.008,-0.02
-0.227,0.934,-0.063
-0.223,0.945,-0.078
0.023,1.039,-0.066
0.141,1.086,-0.012
0.051,1.039,-0.035
-0.164,0.973,-0.125
-0.207,0.914,-0.117
-0.148,0.934,-0.094
-0.145,0.992,-0.078
-0.148,1.02,-0.059
-0.094,1.027,-0.066
-0.043,1.016,-0.066
0.043,1.016,-0.086
0.039,0.996,-0.113
-0.02,0.969,-0.113
-0.082,0.992,-0.105
-0.164,0.98,-0.102
-0.156,0.934,-0.117
-0.133,0.93,-0.121
-0.137,0.945,-0.117
-0.156,1,-0.105
-0.203,1.004,-0.074
-0.219,0.922,-0.09
-0.16,0.895,-0.09
-0.07,0.969,-0.07
-0.008,0.98,-0.012
0.008,1.105,0.055
-0.039,1.148,0.008
-0.098,0.98,0.004
-0.125,0.898,0.004
-0.141,0.965,0.027
-0.102,0.984,0.094
-0.102,0.992,0.09
-0.027,1.055,0.109
-0.016,1.035,0.094
-0.043,1,0.074
-0.039,0.996,0.035
-0.012,1.035,0.031
-0.059,1.008,0.082
-0.066,0.996,0.074
-0.066,0.988,0.004
-0.16,0.973,-0.063
-0.285,0.859,-0.035
-0.18,0.809,-0.082
0.051,0.984,-0.125
0.133,1.227,-0.074
0.039,1.172,-0.117
0.004,0.984,-0.129
0.031,0.941,-0.16
0.031,0.941,-0.199
-0.023,0.859,-0.219
0.02,0.824,-0.23
0.039,0.918,-0.27
0.059,1.004,-0.285
0.301,1.074,-0.313
0.086,1.027,-0.359
-0.359,1.109,-0.211
-0.547,1.047,0.012
-0.473,0.984,0.047
-0.324,1.047,0.082
-0.059,1.176,0.082
0.172,1.109,0.066
0.133,0.914,0.078
-0.043,0.855,0.027
-0.129,0.738,-0.012
-0.152,0.703,-0.039
-0.129,0.777,-0.023
0.055,0.938,-0.008
0.133,0.992,0.012
0.043,0.977,0.008
-0.098,0.988,0.109
-0.063,1.004,0.191
0.152,1.176,0.223
0.309,1.305,0.203
0.211,1.266,0.168
-0.18,1.152,0.098
-0.336,1.191,0.043
-0.285,1.027,0.09
-0.219,1.266,-0.008
-0.195,1.344,0.082
-0.145,1.09,0.09
-0.117,0.793,0
-0.086,0.586,-0.066
-0.008,0.445,-0.082
-0.023,0.477,-0.133
-0.078,0.621,-0.148
-0.102,0.918,-0.152
-0.043,1.277,-0.117
0.086,1.684,-0.184
0.258,1.262,-0.254
-0.25,1.004,-0.113
-0.602,1.289,0.148
-0.672,1.191,0.223
-0.254,0.777,-0.246
-0.012,0.805,-0.047
0.047,0.879,0.051
-0.047,0.703,0.023
-0.125,0.613,0.07
-0.113,0.75,0.102
0.023,0.879,0.027
0.164,1.023,-0.023
0.109,1.16,-0.102
0.215,1.223,0
0.277,1.223,-0.055
0.016,1.125,-0.223
-0.293,0.914,-0.074
-0.051,1.031,-0.008
0,1.371,0.016
-0.09,1.473,0.035
-0.031,1.023,0.012
0.105,0.668,-0.059
0.148,0.496,-0.105
0.055,0.48,-0.219
-0.105,0.609,-0.191
-0.145,0.773,-0.215
0.039,1.102,-0.152
0.094,1.512,-0.215
0.293,1.371,-0.305
-0.129,1.406,-0.203
-0.391,1.172,0.086
-0.367,0.871,-0.023
-0.156,0.816,-0.113
-0.023,0.914,-0.008
0.031,0.84,0.043
-0.047,0.73,0.004
-0.066,0.672,0.043
-0.039,0.754,0.039
0.039,0.973,0.035
0.113,1.102,0.027
-0.023,1.121,-0.066
-0.008,1.09,-0.008
0.176,1.176,-0.047
-0.039,1.094,-0.266
-0.262,1.082,-0.02
-0.07,1.129,0.023
0.012,1.301,-0.008
0.02,1.398,-0.016
-0.023,1.152,-0.008
0.063,0.754,-0.113
0.094,0.59,-0.129
0.051,0.492,-0.145
0.039,0.539,-0.203
0.059,0.648,-0.23
0.145,0.926,-0.188
0.148,1.387,-0.164
0.16,1.465,-0.223
0.348,0.996,-0.242
-0.188,1.156,-0.199
-0.441,1.32,0.125
-0.516,1.105,0.004
-0.125,0.785,-0.219
0.063,0.977,0.016
0.098,0.867,0.02
-0.004,0.68,-0.004
-0.105,0.59,0.02
-0.066,0.715,0.047
0.012,0.949,0.039
0.098,1.027,-0.035
0.254,1.105,0
0.336,1.219,0.023
0.246,1.242,-0.004
-0.031,1.156,-0.176
-0.145,1.082,-0.027
-0.137,1.055,0.027
-0.059,1.176,0.027
0.035,1.5,0.047
-0.023,1.266,0.012
-0.004,0.859,0.008
-0.02,0.641,-0.031
0.039,0.559,-0.094
-0.016,0.559,-0.152
-0.078,0.613,-0.215
-0.105,0.684,-0.23
-0.047,0.973,-0.18
0.004,1.371,-0.242
0.156,1.406,-0.301
-0.008,1.305,-0.082
-0.508,1.445,-0.047
-0.477,1,0.188
-0.262,0.758,-0.113
-0.082,1.059,0.023
0.07,1.051,0.059
0.082,0.781,0.027
-0.082,0.695,0.02
-0.121,0.637,-0.008
-0.094,0.781,0.012
0.094,0.914,0.055
0.219,0.988,0.012
0.137,1.133,-0.07
0.18,1.168,-0.008
0.242,1.211,-0.008
0.16,1.254,-0.121
-0.02,1.145,-0.043
-0.129,1.027,-0.016
-0.137,0.992,-0.047
-0.023,1.285,0.004
-0.027,1.348,-0.004
-0.008,1.02,-0.039
0.09,0.707,-0.105
0.125,0.5,-0.152
0.113,0.488,-0.184
-0.008,0.543,-0.219
-0.105,0.672,-0.191
-0.035,1.09,-0.133
0.02,1.52,-0.195
0.246,1.41,-0.328
0.363,1.117,-0.324
-0.293,1.152,-0.18
-0.551,1.188,0.148
-0.578,0.996,0.02
-0.262,0.766,-0.168
0,0.891,-0.016
0.094,0.879,0.016
0.023,0.762,-0.02
-0.012,0.715,0.004
0.07,0.762,0.02
0.129,0.926,0.02
0.023,1.098,-0.039
-0.07,1.109,-0.074
0.129,1.125,-0.047
0.27,1.254,-0.121
0.086,1.215,-0.262
-0.09,1.16,0.055
-0.113,0.969,-0.051
0.008,1.188,-0.043
0,1.395,0.004
-0.098,1.066,-0.043
-0.023,0.684,-0.105
0.051,0.516,-0.137
0.086,0.488,-0.223
-0.02,0.598,-0.289
-0.031,0.797,-0.242
0.063,1.066,-0.176
0.012,1.453,-0.23
0.145,1.438,-0.324
0.086,0.977,-0.242
-0.43,1.156,-0.082
-0.508,1.172,0.133
-0.395,0.93,-0.156
-0.102,0.887,-0.055
0.086,0.973,0.051
0.066,0.805,0
-0.027,0.699,0.023
-0.035,0.691,0.023
-0.035,0.828,0.023
-0.012,1.102,0.004
-0.035,1.063,-0.086
0.168,1.059,-0.078
0.406,1.172,-0.086
0.176,1.172,-0.363
-0.238,1.191,0.016
-0.172,1.203,0.043
-0.047,1.277,-0.016
-0.066,1.375,-0.023
-0.098,1.008,-0.047
0.012,0.668,-0.102
0.086,0.492,-0.16
0.063,0.484,-0.227
-0.008,0.578,-0.273
-0.055,0.715,-0.223
0.07,1.098,-0.172
0.016,1.512,-0.195
0.09,1.227,-0.309
-0.281,1.098,-0.191
-0.484,1.406,0.129
-0.547,1.078,0
-0.266,0.828,-0.27
0.012,1.055,0.039
0.141,0.996,0.063
-0.012,0.813,-0.016
-0.074,0.664,0.016
-0.023,0.77,0.035
0.031,0.961,0.031
0.086,0.957,-0.074
0.141,0.938,-0.117
0.219,0.949,-0.07
0.027,0.934,-0.293
-0.473,0.992,-0.234
-0.09,1.461,-0.027
-0.105,1.703,-0.059
-0.105,1.363,-0.176
-0.152,0.953,-0.16
0.035,0.824,-0.168
0.137,0.742,-0.168
0.078,0.641,-0.211
-0.043,0.496,-0.316
-0.086,0.539,-0.262
0.129,0.965,-0.121
0.141,1.359,-0.152
0.121,1.27,-0.207
-0.371,1.574,-0.223
-0.34,1.047,-0.016
-0.449,0.703,-0.176
-0.359,1.043,-0.027
-0.172,1.281,0.152
-0.094,1.008,0.016
-0.078,0.813,0.02
-0.051,0.844,0.086
0.027,0.914,0.109
0.086,0.945,0.02
0.172,0.922,-0.063
0.172,0.891,-0.059
0.191,0.973,-0.02
0.242,0.996,-0.063
0.254,0.988,-0.121
0.074,1.047,-0.266
-0.203,1.207,-0.102
-0.145,1.082,-0.035
-0.098,0.918,-0.195
0.156,1.336,-0.195
0.23,1.23,-0.273
0.117,1.051,-0.23
0.074,0.898,-0.223
0.059,0.801,-0.191
0.023,0.746,-0.203
0,0.73,-0.23
0.039,0.754,-0.27
0.152,0.898,-0.309
0.172,1.055,-0.324
0.012,1.008,-0.379
-0.129,0.848,-0.43
-0.098,0.773,-0.473
-0.039,0.77,-0.477
-0.027,0.801,-0.402
-0.23,1.203,-0.344
-0.305,1.336,-0.078
-0.164,1.129,0.086
-0.016,1.098,0.164
0.066,1.047,0.063
-0.055,1.094,0.047
-0.082,1.02,0.031
-0.016,0.902,-0.004
-0.027,0.91,-0.016
-0.117,1.008,-0.008
-0.074,1.004,-0.078
-0.008,0.977,-0.094
-0.004,0.992,-0.031
-0.066,1.031,0.055
-0.113,0.988,-0.035
-0.051,0.941,-0.09
-0.055,0.953,-0.074
-0.059,0.992,-0.055
-0.043,0.988,-0.086
-0.031,0.969,-0.113
-0.039,0.984,-0.09
-0.027,0.988,-0.078
-0.008,1.016,-0.09
-0.039,1.027,-0.105
-0.094,0.996,-0.117
-0.117,0.973,-0.141
-0.074,1.016,-0.137
-0.055,0.996,-0.129
-0.043,0.988,-0.145
-0.023,0.992,-0.137
-0.004,0.977,-0.141
0,1,-0.145
0.023,1,-0.148
0.039,0.988,-0.156
0.027,0.953,-0.141
0.004,0.953,-0.137
0.031,0.977,-0.117
0.082,0.988,-0.121
0.129,1,-0.148
0.137,1.016,-0.156
0.098,0.973,-0.133
0.066,0.973,-0.129
0.098,0.98,-0.109
0.074,0.965,-0.121
-0.004,0.965,-0.078
-0.027,0.992,-0.086
0.016,0.988,-0.109
0.02,0.988,-0.113
0.012,1.004,-0.059
0.02,1.012,-0.082
0.023,1.004,-0.082
-0.016,0.984,-0.121
-0.039,1.012,-0.113
-0.063,1,-0.125
-0.082,0.988,-0.105
-0.07,0.98,-0.066
-0.031,0.988,-0.105
0.008,1.012,-0.102
-0.027,0.992,-0.105
-0.012,1.004,-0.133
-0.059,0.988,-0.094
-0.051,0.977,-0.109
-0.078,0.992,-0.086
-0.066,0.98,-0.098
-0.094,0.949,-0.094
-0.082,0.98,-0.121
-0.039,1.012,-0.086
-0.051,0.941,-0.148
0.063,1.004,-0.152
0.023,1.016,-0.129
0.02,1.012,-0.098
-0.008,1.031,-0.172
-0.063,0.953,-0.109
-0.051,0.918,-0.16
-0.133,0.93,-0.16
-0.27,0.871,-0.102
-0.043,0.98,-0.18
0.152,1.129,-0.164
0.039,1.059,-0.109
0.008,0.977,-0.152
-0.023,0.988,-0.137
-0.117,0.953,-0.145
-0.172,0.938,-0.145
-0.066,0.996,-0.16
0.012,1.039,-0.188
-0.02,1,-0.16
-0.117,0.953,-0.184
-0.195,0.887,-0.188
-0.074,1.02,-0.195
-0.035,0.988,-0.168
-0.102,1.004,-0.133
-0.188,0.902,-0.137
-0.02,0.969,-0.129
0.047,0.945,-0.16
0.063,1.176,-0.109
-0.094,1.07,-0.078
-0.215,0.902,-0.09
-0.141,0.887,-0.113
-0.039,1.031,-0.078
-0.082,1.012,-0.063
-0.07,0.977,-0.09
0.043,1.078,-0.09
-0.016,1.027,-0.055
-0.109,0.977,-0.074
-0.324,0.938,-0.07
-0.184,0.938,-0.152
-0.133,0.953,-0.133
-0.133,0.945,-0.09
-0.082,1,-0.063
0.047,1.016,-0.074
0.074,1.004,-0.148
-0.031,1.035,-0.102
-0.121,0.992,-0.074
-0.121,0.887,-0.105
0.02,1.016,-0.129
0.023,1.066,-0.082
-0.074,0.957,-0.121
-0.063,0.992,-0.113
-0.035,0.965,-0.113
0,1.039,-0.148
-0.02,0.977,-0.121
-0.047,0.973,-0.105
-0.02,1.004,-0.133
0.004,0.977,-0.125
0.023,1.023,-0.105
0.066,1.004,-0.152
0.098,0.98,-0.121
0.145,0.945,-0.078
0.145,0.918,-0.07
0.102,0.906,-0.066
0.094,0.961,0
0.02,0.965,-0.008
-0.063,0.91,-0.02
-0.113,0.906,-0.023
-0.16,1.008,0.008
-0.145,1.094,0
-0.148,1.094,-0.035
-0.105,1.105,-0.066
-0.117,1.117,-0.063
-0.078,1.059,-0.086
0.059,1.012,-0.09
0.121,1.016,-0.063
0.125,0.992,-0.051
0.094,1.004,-0.059
0.086,1.008,-0.059
0.051,1.02,-0.055
0.039,1.027,-0.066
0.07,0.984,-0.082
0.105,0.965,-0.086
0.086,0.988,-0.074
0.031,1.008,-0.078
0.02,1.02,-0.055
0.027,1.02,-0.066
0.035,1.012,-0.098
0.102,0.969,-0.066
0.113,0.926,-0.078
0.086,0.895,-0.09
0.07,0.859,-0.098
0.043,0.977,-0.086
-0.066,1.164,-0.027
-0.031,1.164,-0.008
0.055,1.02,-0.063
0.039,0.922,-0.113
-0.063,0.934,-0.07
-0.141,1,-0.023
-0.152,1.004,-0.051
-0.113,1,-0.066
-0.094,0.957,-0.055
-0.043,0.965,-0.047
-0.059,0.965,-0.035
-0.09,0.938,-0.047
-0.102,0.969,-0.031
-0.094,1.008,0
-0.051,1,-0.047
-0.023,1.016,-0.063
-0.07,1,-0.035
-0.125,0.977,-0.039
-0.145,0.98,-0.023
-0.129,0.988,-0.027
-0.141,0.973,-0.016
-0.164,0.969,-0.012
-0.121,0.996,-0.012
-0.102,0.992,-0.031
-0.145,0.996,-0.027
-0.148,0.992,-0.016
-0.125,0.988,-0.023
-0.125,0.98,-0.031
-0.141,0.988,-0.031
-0.137,0.984,-0.027
-0.141,1.004,-0.023
-0.164,0.996,-0.023
-0.176,0.977,-0.023
-0.141,0.969,-0.02
-0.109,0.977,-0.023
-0.148,0.941,-0.016
-0.152,1.031,-0.008
-0.094,1.047,-0.051
-0.129,1.016,-0.07
-0.203,0.969,-0.09
-0.254,0.898,-0.117
-0.242,0.836,-0.098
-0.094,1.039,-0.094
0.125,1.227,-0.086
0.148,1.133,-0.141
0.008,0.949,-0.16
-0.02,0.852,-0.176
0.02,0.809,-0.184
0.031,0.77,-0.184
0.051,0.801,-0.176
0.035,0.949,-0.168
0.102,1.098,-0.184
0.086,1.227,-0.188
-0.09,1.25,-0.344
-0.098,0.898,-0.406
-0.32,0.801,-0.219
-0.531,1.094,0.066
-0.469,1.109,0.176
-0.277,1.176,-0.012
-0.094,1.176,0.039
0.059,1.012,0.008
0.055,0.797,0.016
-0.066,0.691,0.008
-0.152,0.707,0.078
-0.102,0.844,0.105
0,0.906,0.07
0,0.984,0.09
-0.016,1.102,0.027
0.098,1.121,0.063
0.195,1.203,0.078
0.012,1.281,-0.211
-0.152,1.258,-0.125
-0.273,1.242,0.016
-0.395,0.898,-0.117
-0.277,1.078,-0.188
-0.168,1.352,-0.113
-0.219,1.066,-0.074
-0.164,0.734,-0.055
0.039,0.551,-0.074
0.16,0.5,-0.086
0.133,0.477,-0.176
0.035,0.527,-0.297
0.082,0.664,-0.352
0.102,1.137,-0.133
0.137,1.734,-0.254
0.223,1.738,-0.332
0.02,1.352,-0.332
-0.465,1.016,-0.188
-0.652,0.82,0.004
-0.512,0.973,-0.031
-0.324,1.191,0.055
0.008,1.109,0.039
0.07,0.797,-0.004
-0.164,0.469,-0.043
-0.254,0.496,0.012
-0.18,0.73,0.102
0.012,0.891,0.09
0.203,0.98,0.031
0.293,0.941,-0.148
0.223,1.027,-0.129
0.281,1.398,0.031
0.207,1.484,-0.16
-0.117,1.352,-0.203
-0.23,1.172,0.121
-0.277,0.926,-0.02
-0.105,1.426,-0.016
-0.027,1.43,-0.039
-0.07,0.992,-0.008
0.004,0.547,-0.066
0.043,0.336,-0.113
0.078,0.305,-0.164
-0.027,0.422,-0.227
-0.09,0.5,-0.254
-0.004,0.773,-0.234
-0.023,1.41,-0.164
0.262,1.887,-0.238
0.074,1.613,-0.18
-0.441,1.668,-0.25
-0.625,0.781,0.066
-0.43,0.547,-0.285
-0.359,1.105,0.137
-0.176,1.328,0.211
0,0.891,0.043
-0.059,0.473,0
-0.063,0.395,0.055
-0.016,0.598,0.168
0.098,0.73,0.09
0.141,0.93,0.02
0.152,1.074,-0.113
0.125,1.164,-0.063
0.211,1.379,0.078
0.293,1.414,0.02
0.023,1.25,-0.18
-0.133,1.148,0.043
-0.262,1.051,0.117
-0.082,1.395,0.043
0.027,1.449,-0.004
-0.008,1.012,0.023
0.066,0.563,-0.07
0.102,0.367,-0.125
0.105,0.328,-0.148
0.016,0.402,-0.199
-0.035,0.551,-0.188
0.004,0.883,-0.156
0,1.566,-0.098
0.305,1.762,-0.18
0.504,1.133,-0.297
-0.254,1.223,-0.281
-0.762,1.25,0.246
-0.785,1.074,0.141
-0.301,0.875,-0.152
-0.109,1.141,0.156
0.016,0.973,0.098
-0.063,0.691,0.004
-0.051,0.477,0.012
0.055,0.5,0.086
0.145,0.695,0.141
0.141,0.926,0.031
0.059,1.012,-0.094
0.141,1.09,0
0.285,1.383,0.063
0.387,1.445,0.02
0.02,1.32,-0.098
-0.152,1.199,0.168
-0.258,0.93,0.051
-0.105,1.254,0
-0.008,1.445,0.07
-0.074,1.105,0.063
-0.039,0.68,-0.012
0.035,0.449,-0.145
0.09,0.328,-0.18
0.027,0.414,-0.121
-0.078,0.57,-0.082
-0.07,0.852,-0.148
-0.113,1.465,-0.105
0.258,1.617,-0.215
0.426,1.152,-0.195
-0.363,1.484,-0.23
-0.684,1.328,0.355
-0.523,0.895,-0.105
-0.176,0.832,-0.059
-0.102,1.211,0.199
-0.012,0.93,0.094
-0.086,0.605,0.035
-0.098,0.484,0.035
-0.027,0.578,0.082
0.043,0.738,0.094
0.102,0.914,0.051
0.113,1.074,-0.082
0.238,1.078,-0.043
0.355,1.352,0.012
0.148,1.449,-0.094
-0.121,1.41,0.086
-0.242,1.168,0.168
-0.215,0.801,-0.074
-0.043,1.313,-0.023
-0.027,1.395,0.059
-0.145,1.023,0.047
-0.109,0.598,-0.063
0.008,0.418,-0.16
0.129,0.391,-0.156
0.086,0.535,-0.16
-0.012,0.68,-0.156
-0.07,0.949,-0.133
-0.043,1.477,-0.129
0.336,1.578,-0.223
0.367,1.055,-0.164
-0.422,1.371,-0.176
-0.742,1.332,0.406
-0.539,0.906,-0.016
-0.172,0.801,-0.078
-0.078,1.168,0.188
-0.012,0.895,0.07
-0.086,0.652,0.023
-0.102,0.559,0.023
-0.051,0.648,0.07
0.031,0.816,0.082
0.105,0.965,0.059
0.117,1.063,-0.02
0.156,1.09,0.039
0.25,1.207,0.094
0.121,1.305,-0.113
-0.098,1.328,-0.051
-0.102,1.191,0.148
-0.316,0.945,-0.039
-0.164,1.301,-0.039
-0.043,1.348,0
-0.156,1.078,0
-0.109,0.773,-0.063
-0.063,0.605,-0.121
0.039,0.594,-0.117
0.047,0.582,-0.145
0.063,0.512,-0.199
0.008,0.664,-0.16
-0.023,1.047,-0.09
-0.02,1.469,-0.055
0.297,1.332,-0.172
0.238,1.09,-0.207
-0.336,1.563,-0.094
-0.617,1.227,0.324
-0.48,0.793,-0.195
-0.266,0.875,-0.082
-0.145,1.152,0.133
-0.055,0.879,0.043
-0.137,0.691,0.027
-0.133,0.652,0.047
-0.121,0.82,0.098
-0.043,0.953,0.059
0.094,0.992,0.023
0.09,0.973,-0.035
0.008,1.051,-0.023
0.02,1.027,0.027
0.063,1.031,-0.051
-0.09,1.148,-0.176
-0.004,1.285,0.172
-0.168,1.145,0.016
-0.246,1.121,-0.125
-0.113,1.238,-0.145
-0.043,1.215,-0.098
-0.012,1.008,-0.098
0.055,0.813,-0.109
0.039,0.699,-0.113
-0.016,0.695,-0.125
-0.043,0.727,-0.145
-0.031,0.723,-0.207
0.008,0.809,-0.199
0.117,0.973,-0.172
0.117,1.145,-0.223
0.18,1.188,-0.246
0.07,1.152,-0.102
-0.211,1.344,0
-0.344,1.172,0.191
-0.32,0.801,0.07
-0.262,0.813,0.137
-0.172,1.102,0.266
0.008,1.082,0.215
0.059,0.961,0.164
-0.004,0.879,0.129
-0.086,0.844,0.109
-0.137,0.906,0.129
-0.094,0.941,0.156
-0.02,0.945,0.168
0.027,0.98,0.18
0.043,0.918,0.168
-0.031,0.949,0.188
-0.137,1.074,0.137
-0.043,1.082,0.133
0.125,1.016,0.09
0.066,1,0.02
0.008,1.266,0.199
0.047,1.348,0.355
-0.207,1.031,0.047
-0.16,0.754,-0.133
0.016,0.922,-0.039
0.031,1.207,0.027
-0.078,1.051,-0.004
-0.105,0.863,-0.035
-0.086,0.848,-0.039
-0.055,0.863,-0.055
-0.059,0.836,-0.086
-0.094,0.875,-0.082
-0.113,0.961,-0.063
-0.164,0.988,-0.066
-0.113,0.984,-0.078
-0.035,1.008,-0.098
0.055,0.98,-0.105
0.09,0.949,-0.152
-0.008,0.934,-0.156
-0.055,0.957,-0.16
-0.02,1.004,-0.156
-0.047,1.129,-0.094
-0.063,1.281,-0.059
-0.074,1.176,-0.109
0.004,0.844,-0.164
-0.004,0.785,-0.035
-0.133,1.02,0.113
-0.184,1.078,0.152
-0.16,0.945,0.039
-0.156,0.957,0.063
-0.113,1.02,0.105
-0.059,1.031,0.125
-0.008,1.039,0.125
0.117,1.039,0.035
0.289,1.043,-0.004
0.238,0.969,0.031
0.16,0.766,0.047
-0.008,0.828,0.004
-0.234,0.973,0.074
-0.582,1.18,0.176
-0.57,1.113,0.305
-0.191,0.953,0.215
0.164,0.887,0.086
0.406,0.988,0.055
0.465,1.035,0.078
0.336,0.996,0.121
0.246,0.926,0.117
0.242,0.914,0.121
0.238,0.957,0.129
0.191,0.988,0.148
0.164,1.02,0.145
0.059,0.988,0.121
0.066,1.02,0.148
0.113,1.129,0.117
0.078,1.141,0.117
0.059,1.055,-0.039
0.09,1.074,-0.082
0.129,1.16,-0.094
0.215,1.055,-0.184
0.305,0.816,-0.176
0.453,0.926,-0.246
0.262,1.055,-0.074
0.184,0.793,-0.168
0.105,0.785,-0.063
-0.016,0.688,-0.164
-0.09,0.844,-0.176
-0.074,0.887,-0.098
0.008,0.906,-0.141
0,0.938,-0.227
0.047,0.934,-0.238
0.258,0.906,-0.305
0.258,0.988,-0.227
0.137,0.996,-0.266
0.047,1.012,-0.281
0.246,1.039,-0.164
0.309,1.219,-0.063
0.043,0.973,-0.156
0.09,0.867,-0.113
-0.012,0.887,-0.043
-0.098,0.949,-0.074
-0.012,0.934,-0.059
0.16,0.949,-0.012
0.086,1.094,0.059
0.004,1.129,-0.008
-0.074,1.063,0.051
0.109,0.965,0.07
0.059,0.938,-0.004
0.129,0.934,-0.012
0.145,0.938,0.016
0.148,1.023,0.031
0.105,1.082,0.035
0.055,1.078,0.004
0.016,1.027,0.016
0.027,0.973,0.02
0.07,0.953,0.004
0.074,0.996,-0.012
0.066,1.035,-0.023
0.063,1.039,-0.039
0.031,0.992,-0.07
-0.02,0.941,-0.063
0.008,0.961,-0.047
0.094,0.992,-0.039
0.18,1.008,-0.02
0.16,1.031,-0.012
0.113,0.977,0.008
0.078,0.973,-0.016
0.023,0.984,-0.023
-0.066,1.039,-0.004
-0.035,1.059,0.012
0.031,1.004,-0.016
0.082,0.957,-0.055
0.094,0.91,-0.109
0.066,0.973,-0.102
0.047,1.012,-0.102
0.074,0.996,-0.105
0.184,1.012,-0.117
0.16,0.98,-0.117
0.063,0.984,-0.082
0.004,0.969,-0.086
-0.086,1.027,-0.035
-0.066,0.984,-0.031
0.004,1.012,-0.066
0.07,1.004,-0.102
0.105,0.969,-0.133
0.23,0.945,-0.199
0.242,0.969,-0.141
0.098,0.969,-0.105
-0.039,0.977,-0.074
-0.023,0.984,-0.09
0.016,0.973,-0.086
0.016,0.973,-0.094
0.039,0.98,-0.117
0.059,1.027,-0.078
-0.004,0.922,-0.086
-0.125,1.07,-0.113
-0.004,1.023,-0.047
0.063,0.996,-0.055
0.02,0.938,-0.066
0.004,1,-0.051
0.02,1.051,-0.051
0.012,1.055,-0.055
0.043,0.926,-0.125
0.09,0.941,-0.098
0.141,0.984,-0.133
0.152,1.066,-0.047
0.055,1.027,-0.012
-0.074,1.035,0.02
-0.176,1.031,0.043
-0.246,1.035,-0.027
-0.266,1.234,0.066
-0.117,1.059,0.086
0.094,0.75,0.137
0.066,0.473,0.152
0.035,0.762,0.02
-0.035,0.867,-0.211
-0.004,0.836,-0.297
0.078,1.059,-0.145
-0.043,1.398,0.016
-0.234,1.246,-0.047
-0.176,0.949,-0.121
-0.133,0.93,-0.215
-0.191,0.949,-0.199
-0.23,0.945,-0.211
-0.141,0.996,-0.145
-0.102,1.02,-0.176
-0.145,1.035,-0.137
-0.148,0.996,-0.129
-0.168,1.078,-0.129
-0.117,1.117,-0.051
-0.121,1.059,-0.102
-0.039,0.926,-0.113
-0.055,0.875,-0.164
-0.039,0.855,-0.109
-0.098,0.828,-0.168
-0.148,0.824,-0.227
-0.086,0.992,-0.18
-0.039,1.059,-0.168
-0.129,1.059,-0.172
-0.133,1.051,-0.145
-0.105,1,-0.188
-0.102,0.945,-0.16
-0.133,0.965,-0.164
-0.141,1.035,-0.168
-0.094,0.984,-0.164
-0.063,0.945,-0.176
-0.082,0.906,-0.156
-0.117,0.926,-0.184
-0.133,0.953,-0.176
-0.168,0.969,-0.199
-0.234,1.004,-0.191
-0.23,0.938,-0.207
-0.172,0.984,-0.199
-0.066,1.008,-0.195
-0.055,0.965,-0.258
-0.07,0.98,-0.195
-0.066,0.945,-0.219
-0.074,0.984,-0.215
-0.082,0.98,-0.234
-0.039,1,-0.238
-0.066,1.027,-0.184
-0.164,1.031,-0.168
-0.203,1.031,-0.148
-0.156,1.008,-0.148
-0.094,0.918,-0.211
-0.063,0.969,-0.156
-0.043,0.996,-0.172
-0.063,0.961,-0.164
-0.148,0.898,-0.219
-0.086,0.887,-0.227
-0.004,0.91,-0.254
-0.016,0.926,-0.246
-0.051,0.914,-0.254
-0.082,0.938,-0.258
-0.133,0.961,-0.289
-0.18,1.066,-0.234
-0.188,1.027,-0.203
-0.18,0.977,-0.25
-0.129,0.941,-0.242
-0.031,0.945,-0.25
-0.07,0.945,-0.262
-0.113,0.969,-0.219
-0.102,0.98,-0.207
-0.125,0.965,-0.238
-0.113,0.945,-0.234
-0.082,0.98,-0.227
-0.102,0.984,-0.219
-0.148,0.961,-0.234
-0.125,0.938,-0.234
-0.074,0.988,-0.223
-0.051,0.969,-0.219
-0.086,0.949,-0.219
-0.102,0.918,-0.234
-0.07,0.918,-0.246
-0.109,0.957,-0.234
-0.168,0.98,-0.246
-0.141,1.008,-0.215
-0.117,1.012,-0.219
-0.09,0.938,-0.25
-0.063,0.961,-0.266
-0.074,0.996,-0.207
-0.066,0.988,-0.215
-0.102,0.977,-0.25
-0.148,0.949,-0.25
-0.141,0.961,-0.215
-0.082,0.961,-0.191
-0.051,0.91,-0.23
-0.09,0.91,-0.25
-0.113,0.973,-0.223
-0.117,0.988,-0.211
-0.105,0.988,-0.234
-0.078,0.996,-0.234
-0.094,1.008,-0.227
-0.129,0.977,-0.219
-0.105,0.961,-0.223
-0.113,0.969,-0.219
-0.102,0.992,-0.219
-0.113,0.969,-0.207
-0.125,0.965,-0.195
-0.105,0.965,-0.203
-0.043,0.965,-0.188
-0.082,0.949,-0.215
-0.105,0.953,-0.211
-0.102,0.965,-0.207
-0.102,0.98,-0.219
-0.105,0.969,-0.203
-0.121,0.98,-0.203
-0.117,0.977,-0.219
-0.113,0.969,-0.215
-0.098,0.965,-0.211
-0.098,0.969,-0.215
-0.105,0.977,-0.211
-0.117,0.969,-0.223
-0.117,0.961,-0.223
-0.105,0.984,-0.215
-0.121,0.984,-0.207
-0.137,0.949,-0.199
-0.129,0.93,-0.246
-0.148,0.953,-0.219
-0.129,0.949,-0.219
-0.098,0.973,-0.262
0,1.098,-0.234
-0.047,0.969,-0.145
-0.125,0.914,-0.25
-0.055,0.934,-0.23
0.02,0.957,-0.219
-0.004,0.934,-0.25
-0.008,0.949,-0.227
-0.027,0.977,-0.211
-0.047,0.953,-0.223
-0.066,0.957,-0.203
-0.102,0.992,-0.184
-0.117,0.992,-0.188
-0.121,1.012,-0.219
-0.117,1.008,-0.246
-0.117,0.941,-0.23
-0.16,0.938,-0.195
-0.219,0.969,-0.176
-0.227,0.961,-0.176
-0.266,0.965,-0.152
-0.246,0.938,-0.117
-0.203,0.984,-0.078
-0.172,1.07,-0.074
-0.148,1.016,-0.094
-0.109,0.965,-0.105
-0.098,0.957,-0.086
-0.102,0.973,-0.008
-0.094,0.992,0.004
-0.07,1,-0.012
-0.074,1.012,-0.027
-0.059,1.043,-0.004
-0.074,1.059,0.02
-0.098,1.023,0.02
-0.113,0.992,0.035
-0.121,0.992,0.02
-0.145,0.98,0.012
-0.152,1.023,0.016
-0.129,1.02,0.008
-0.09,0.988,-0.012
-0.012,0.988,-0.023
0.004,0.977,-0.02
-0.059,1.02,-0.008
-0.113,1.027,-0.059
-0.113,1.023,-0.086
-0.063,1.02,-0.07
-0.012,0.98,-0.02
-0.051,0.949,-0.02
-0.094,0.98,-0.074
-0.113,0.996,-0.086
-0.09,1,-0.105
-0.07,1.008,-0.063
-0.043,1,-0.039
-0.031,0.984,-0.07
-0.059,0.992,-0.094
-0.082,0.93,-0.102
-0.113,1,-0.121
-0.09,1.031,-0.07
-0.109,0.965,-0.109
-0.105,0.98,-0.102
-0.082,0.984,-0.086
-0.098,0.953,-0.109
-0.082,0.941,-0.148
-0.094,0.949,-0.188
-0.086,0.973,-0.152
-0.031,0.984,-0.211
0.023,1.078,-0.18
-0.035,1.027,-0.207
-0.184,0.961,-0.188
-0.246,0.961,-0.152
-0.254,0.938,-0.188
-0.203,0.965,-0.188
-0.074,0.965,-0.199
0.016,0.977,-0.227
0.051,0.98,-0.223
-0.016,0.969,-0.238
-0.07,1.004,-0.199
-0.148,0.977,-0.164
-0.211,0.895,-0.188
-0.285,0.813,-0.246
-0.348,0.738,-0.223
-0.266,0.813,-0.238
-0.082,1.152,-0.242
0.133,1.555,-0.211
0.121,1.117,-0.262
-0.031,0.809,-0.211
-0.168,0.777,-0.23
-0.129,0.84,-0.246
-0.168,0.867,-0.316
-0.176,0.973,-0.27
-0.082,1.055,-0.227
-0.016,1.074,-0.211
-0.027,0.926,-0.293
-0.094,0.844,-0.324
-0.141,0.973,-0.246
-0.09,1.02,-0.203
-0.121,0.992,-0.242
-0.199,0.879,-0.238
-0.199,0.855,-0.238
-0.195,0.961,-0.238
-0.117,1.023,-0.223
-0.09,1.035,-0.246
-0.078,0.938,-0.246
-0.113,0.973,-0.223
-0.086,0.941,-0.238
-0.117,0.945,-0.25
-0.055,0.777,-0.277
-0.023,0.758,-0.262
-0.035,0.719,-0.266
0.004,0.523,-0.102
-0.258,1.277,-0.066
-0.094,0.836,-0.277
-0.844,2.031,-0.223
-0.414,1.469,-0.086
-0.285,1.141,-0.191
-0.184,0.871,-0.223
-0.191,0.695,-0.234
-0.223,0.77,-0.223
-0.266,0.953,-0.188
-0.246,0.965,-0.18
-0.266,0.938,-0.199
-0.219,0.977,-0.191
-0.215,0.91,-0.195
-0.203,0.98,-0.203
-0.223,0.961,-0.203
-0.223,0.867,-0.203
-0.414,0.613,-0.223
-0.238,0.941,-0.156
0.113,1.262,-0.129
0.086,1.215,-0.148
-0.055,1.184,-0.117
-0.336,0.563,-0.191
-0.313,0.762,-0.172
-0.25,0.934,-0.176
-0.188,1.043,-0.152
-0.234,0.992,-0.156
-0.297,0.945,-0.137
-0.297,0.93,-0.152
-0.277,0.969,-0.16
-0.188,1.016,-0.133
-0.082,0.984,-0.113
-0.035,0.938,-0.141
-0.148,0.898,-0.223
-0.207,0.969,-0.203
-0.246,1.047,-0.148
-0.32,1.078,-0.109
-0.27,1.016,-0.125
-0.125,0.926,-0.129
-0.113,0.859,-0.148
-0.121,0.961,-0.148
-0.105,1.031,-0.137
-0.035,1.031,-0.156
-0.043,1.008,-0.18
-0.094,1.008,-0.141
-0.148,0.91,-0.16
-0.125,0.926,-0.176
-0.051,0.969,-0.184
-0.039,1.043,-0.16
-0.094,0.98,-0.168
-0.148,0.898,-0.188
-0.262,0.875,-0.211
-0.371,0.941,-0.219
-0.367,0.996,-0.191
-0.305,0.98,-0.211
-0.258,0.996,-0.23
-0.25,1.008,-0.238
-0.227,0.996,-0.227
-0.215,0.98,-0.223
-0.203,0.965,-0.207
-0.191,0.961,-0.199
-0.211,0.969,-0.188
-0.199,0.969,-0.168
-0.195,0.965,-0.16
-0.18,0.977,-0.152
-0.152,0.988,-0.16
-0.133,0.969,-0.184
-0.141,0.965,-0.176
-0.172,0.961,-0.168
-0.164,0.98,-0.176
-0.121,0.988,-0.184
-0.082,0.992,-0.168
-0.094,1.02,-0.164
-0.074,0.984,-0.164
-0.066,1.02,-0.18
-0.082,1,-0.152
-0.094,0.961,-0.16
-0.066,0.91,-0.184
-0.109,0.879,-0.195
-0.156,0.906,-0.188
-0.254,0.914,-0.207
-0.328,0.93,-0.211
-0.355,0.918,-0.211
-0.359,0.922,-0.23
-0.348,0.965,-0.215
-0.313,1.016,-0.188
-0.273,1.008,-0.184
-0.211,0.969,-0.207
-0.102,0.969,-0.191
-0.023,0.988,-0.191
0.035,0.973,-0.203
0.02,0.988,-0.207
-0.059,1.02,-0.176
-0.16,0.973,-0.184
-0.203,0.93,-0.188
-0.219,0.957,-0.172
-0.215,0.977,-0.191
-0.164,0.957,-0.188
-0.141,0.965,-0.176
-0.121,0.969,-0.188
-0.105,0.988,-0.184
-0.082,0.984,-0.188
-0.063,0.945,-0.152
-0.059,0.965,-0.191
-0.094,1.039,-0.129
-0.059,0.934,-0.18
-0.098,0.957,-0.176
-0.148,0.984,-0.168
-0.059,0.941,-0.195
-0.098,0.957,-0.172
-0.125,1.047,-0.145
-0.113,0.953,-0.211
-0.141,0.969,-0.199
-0.125,0.98,-0.23
-0.434,0.977,-0.16
0.086,0.898,-0.168
0.016,1.012,-0.172
-0.438,0.938,-0.277
-0.133,1.027,-0.008
0.168,1.051,0.07
-0.031,0.824,-0.207
-0.371,1.07,-0.172
0.059,0.98,0.191
0.191,0.965,-0.02
-0.469,0.859,-0.68
0.039,1.102,0.777
0.324,0.973,0.645
0.199,0.965,0.551
0.328,0.93,0.852
1.051,-0.063,0.383
-0.594,0.977,-0.617
0.082,1.109,0.152
0.109,0.883,-0.266
0.168,0.855,-0.223
0.023,1.121,-0.031
0.016,0.891,-0.27
-0.023,1.027,-0.172
-0.035,0.824,-0.031
-0.016,1.035,-0.008
0.023,1.02,-0.094
0.066,0.926,-0.098
0.043,0.914,-0.129
-0.031,1.063,-0.125
0.02,0.996,-0.078
-0.086,0.992,-0.109
-0.117,1.016,-0.102
-0.008,0.918,-0.188
0.031,0.957,-0.102
0.055,1.039,-0.086
-0.027,0.988,-0.129
-0.082,1.047,-0.133
0.09,0.957,-0.082
0.066,0.957,-0.117
-0.234,0.992,-0.371
0.113,0.977,0.238
0.27,1.047,0.445
0.211,1.012,0.305
-0.098,0.988,-0.07
0.105,0.977,0.035
0.02,1,-0.113
0.156,0.766,-0.066
-0.16,1.078,0.086
-0.008,0.988,-0.023
0.027,1.02,-0.047
0.051,1,-0.063
0.027,0.996,-0.055
-0.023,0.977,-0.02
-0.027,0.984,-0.031
-0.039,0.988,-0.074
-0.02,1.008,-0.047
0.008,0.992,-0.074
-0.008,0.98,-0.09
0.02,1.004,-0.039
0.211,1.016,-0.102
-0.125,0.957,-0.094
-0.137,1,-0.016
-0.066,0.996,-0.035
-0.016,0.977,-0.086
-0.035,0.973,-0.074
-0.027,1.008,-0.035
-0.035,1,-0.043
-0.043,0.992,-0.074
-0.047,0.992,-0.066
-0.055,0.996,-0.051
-0.043,0.988,-0.078
-0.035,1.004,-0.07
-0.055,0.992,-0.031
-0.051,0.996,-0.07
-0.055,0.988,-0.035
-0.07,0.98,-0.043
-0.082,0.988,-0.031
-0.023,1.008,-0.074
0.008,0.992,-0.059
-0.039,0.996,-0.051
-0.031,1,-0.051
-0.066,0.988,-0.02
-0.063,0.984,-0.047
-0.059,0.996,-0.047
-0.047,1,-0.043
-0.047,0.996,-0.051
-0.035,0.996,-0.051
-0.012,0.996,-0.047
-0.027,0.992,-0.02
0.004,0.988,-0.023
-0.008,0.988,-0.039
-0.051,1.008,-0.02
-0.066,0.996,-0.023
-0.051,0.992,-0.039
-0.039,1,-0.047
-0.016,0.996,-0.047
-0.031,0.984,-0.047
-0.066,0.984,-0.031
-0.059,0.996,-0.039
-0.039,1.008,-0.023
-0.043,0.957,-0.035
-0.016,1.039,0.016
-0.043,0.996,0.02
-0.051,1,0.008
-0.078,0.996,-0.047
-0.102,1.051,-0.031
-0.23,1.043,-0.008
-0.242,0.91,-0.113
-0.254,0.867,-0.082
-0.16,0.887,-0.105
0.102,1.105,-0.078
0.375,1.227,-0.105
0.316,1.066,-0.176
0.145,0.898,-0.176
0.039,0.855,-0.164
0.031,0.859,-0.152
0.086,0.848,-0.16
0.047,0.961,-0.113
-0.082,1.145,0.008
-0.102,1.121,-0.004
-0.012,0.973,-0.141
-0.031,0.93,-0.113
-0.168,0.945,0.008
-0.305,1.012,0.066
-0.316,0.98,0.012
-0.211,0.941,0.027
-0.137,0.957,0.063
-0.148,0.992,0.105
-0.176,1.008,0.145
-0.219,1.027,0.145
-0.242,1.039,0.156
-0.262,0.977,0.133
-0.254,0.918,0.137
-0.25,0.977,0.16
-0.25,0.988,0.184
-0.27,0.934,0.191
-0.34,0.914,0.223
-0.387,0.926,0.223
-0.391,0.922,0.195
-0.395,0.898,0.211
-0.387,0.898,0.227
-0.371,0.895,0.242
-0.328,0.918,0.223
-0.273,0.945,0.246
-0.234,0.973,0.246
-0.199,0.973,0.258
-0.195,0.938,0.254
-0.203,0.922,0.262
-0.234,0.93,0.273
-0.258,0.91,0.281
-0.27,0.902,0.313
-0.25,0.938,0.328
-0.188,0.922,0.332
-0.148,0.926,0.328
-0.063,0.906,0.309
0.004,0.914,0.297
-0.035,0.938,0.211
-0.133,1.023,0.066
-0.25,1.125,0.129
-0.559,1.109,0.063
-0.41,1.254,-0.215
-0.105,1.395,-0.191
-0.09,1.18,-0.121
-0.215,1.035,-0.023
-0.285,0.969,0.043
-0.285,0.813,0.031
-0.172,0.648,-0.023
-0.039,0.613,-0.074
0.008,0.625,-0.074
-0.055,0.68,-0.125
-0.086,0.809,-0.16
-0.035,0.977,-0.074
0.082,1.145,-0.125
0.102,1.289,-0.188
0.145,1.211,-0.34
-0.023,1.184,-0.457
-0.543,1.355,-0.117
-0.547,1.078,0.047
-0.363,0.785,-0.23
-0.305,0.98,0.098
-0.352,1.176,0.195
-0.324,1.137,0.098
-0.25,0.934,0.105
-0.238,0.734,0.117
-0.289,0.719,0.156
-0.262,0.762,0.16
-0.148,0.777,0.125
-0.031,0.867,0.09
0.063,0.969,0.113
0.012,1.035,0.094
-0.047,1.039,0.051
0.066,1.063,0.09
0.125,1.141,0.105
0.023,1.156,-0.039
0.074,1.32,-0.035
-0.156,1.125,0.094
-0.273,0.883,-0.031
-0.098,1.355,-0.086
0.07,1.496,-0.051
-0.07,1.109,-0.059
-0.113,0.766,-0.117
-0.02,0.625,-0.145
0.105,0.594,-0.18
0.188,0.629,-0.215
0.16,0.551,-0.238
0.133,0.598,-0.25
0.047,0.738,-0.211
0.016,1.336,-0.125
0.262,1.461,-0.105
0.238,1.363,-0.484
-0.063,1.5,-0.039
-0.359,0.895,-0.043
-0.441,0.637,-0.398
-0.398,0.988,0.074
-0.352,1.258,0.121
-0.094,1.262,0.051
0.016,0.961,-0.016
-0.035,0.758,0
-0.184,0.746,0.066
-0.246,0.793,0.105
-0.148,0.781,0.09
-0.059,0.793,0.051
-0.066,0.836,0.129
-0.105,0.926,0.051
0.027,0.926,0.066
0.246,1.043,0.031
0.297,1.152,0.102
0.281,1.316,-0.043
0.363,1.305,-0.047
-0.203,1.129,0.18
-0.414,0.93,0.02
-0.121,1.129,-0.102
0.07,1.441,-0.066
0.027,1.223,0.02
-0.004,1,0.016
-0.035,0.809,-0.063
-0.008,0.734,-0.008
-0.051,0.648,-0.059
-0.094,0.535,-0.105
-0.109,0.504,-0.152
-0.184,0.598,-0.137
-0.219,0.914,-0.105
-0.09,1.273,-0.027
0.277,1.445,-0.074
0.492,1.344,-0.273
0.129,1.453,-0.289
-0.336,1.246,0.066
-0.379,0.914,-0.27
-0.316,0.773,-0.078
-0.344,1.031,0.125
-0.309,1.207,0.047
-0.086,1.039,0.027
-0.059,0.801,0
-0.195,0.656,0.051
-0.262,0.637,0.102
-0.109,0.703,0.082
0.012,0.789,0.031
0.063,0.898,0.117
0.027,1.027,0.066
0.039,1.055,0.008
0.113,1.121,-0.098
0.188,1.32,0.074
0.137,1.512,-0.039
0.004,1.496,0.188
-0.27,0.887,0.184
-0.141,0.762,-0.164
0.031,1.262,-0.051
-0.063,1.527,0.141
-0.266,1.105,0.098
-0.168,0.719,-0.051
-0.012,0.531,-0.145
0.098,0.438,-0.152
0.059,0.414,-0.18
-0.078,0.445,-0.176
-0.23,0.617,-0.215
-0.141,1.066,-0.086
0.121,1.648,-0.027
0.508,1.402,-0.105
0.289,1.344,-0.441
-0.363,1.57,0.094
-0.645,1.023,0
-0.414,0.699,-0.41
-0.195,0.969,0.008
-0.133,1.215,0.102
-0.055,1.133,0.051
-0.035,0.773,-0.004
-0.082,0.551,0.063
-0.113,0.547,0.059
-0.09,0.613,0.121
-0.059,0.707,0.117
-0.086,0.906,0.066
-0.066,1.07,0.031
0.285,1.18,0.09
0.387,1.387,0.063
0.285,1.504,-0.074
0.156,1.426,0.117
-0.391,0.996,0.082
-0.395,0.906,-0.145
-0.113,1.41,-0.012
-0.09,1.422,0.023
-0.203,1.027,0.02
-0.105,0.711,-0.082
0.043,0.543,-0.105
0.133,0.379,-0.148
0.09,0.375,-0.176
-0.008,0.426,-0.215
-0.113,0.563,-0.188
-0.043,1.059,-0.094
0.137,1.703,-0.074
0.516,1.465,-0.223
0.082,1.578,-0.469
-0.41,1.453,0.254
-0.539,0.996,-0.246
-0.289,0.691,-0.332
-0.293,1.016,0.063
-0.246,1.18,0.133
-0.094,0.996,0.039
-0.066,0.66,-0.012
-0.129,0.566,0.012
-0.137,0.68,0.082
-0.027,0.734,0.137
0.055,0.754,0.074
-0.063,0.855,-0.02
-0.047,1.039,-0.031
0.27,1.207,0.063
0.32,1.441,0.023
0.285,1.512,-0.074
0.137,1.383,0.141
-0.387,0.887,0.102
-0.344,0.855,-0.137
-0.09,1.305,-0.051
-0.066,1.387,0.055
-0.117,1.027,0.016
-0.07,0.723,-0.07
0.059,0.59,-0.113
0.117,0.5,-0.113
0.082,0.461,-0.164
0.027,0.492,-0.199
-0.02,0.703,-0.176
-0.027,1.242,-0.066
0.125,1.613,-0.023
0.324,1.313,-0.266
-0.031,1.625,-0.391
-0.313,1.156,0.148
-0.383,0.793,-0.316
-0.281,0.82,-0.031
-0.277,1.098,0.051
-0.121,1.137,0.055
-0.027,0.914,-0.008
-0.066,0.715,0.012
-0.102,0.715,0.066
-0.074,0.781,0.109
0.043,0.848,0.105
0.129,0.805,0.082
0.004,0.852,0.027
-0.129,0.969,-0.023
0.082,1.086,0.012
0.195,1.219,0.039
0.055,1.383,-0.063
0.113,1.359,0.012
-0.152,1.094,0.188
-0.281,0.793,-0.086
-0.09,1.266,-0.094
-0.023,1.512,0.051
-0.141,1.219,0.059
-0.086,0.813,-0.051
0.023,0.633,-0.098
0.121,0.551,-0.109
0.109,0.508,-0.141
0.07,0.473,-0.219
-0.039,0.547,-0.227
-0.082,0.922,-0.113
-0.098,1.496,-0.078
0.238,1.43,-0.098
0.461,1.238,-0.355
0.027,1.441,-0.219
-0.367,1.195,0.098
-0.422,0.82,-0.301
-0.238,0.824,-0.117
-0.199,1.051,0.004
-0.137,1.117,0.039
-0.07,0.887,-0.016
-0.074,0.691,0.023
-0.086,0.605,0.02
-0.031,0.703,0.074
0.023,0.824,0.109
0.074,0.926,0.105
0.043,1,0.004
0.051,0.992,0.012
0.215,1.195,0.063
0.215,1.328,0.082
0.141,1.426,-0.027
0.074,1.305,0.047
-0.277,0.934,0.059
-0.277,0.852,-0.125
-0.145,1.348,-0.043
-0.137,1.406,0.043
-0.125,1.063,0.035
0.004,0.707,-0.066
0.129,0.547,-0.156
0.168,0.445,-0.137
0.098,0.445,-0.164
-0.02,0.457,-0.238
-0.082,0.652,-0.203
-0.086,1.289,-0.004
0.098,1.789,0.063
0.477,1.273,-0.258
0.152,1.406,-0.527
-0.344,1.383,0.203
-0.555,1.008,-0.203
-0.367,0.809,-0.215
-0.246,0.922,-0.031
-0.16,1.086,0.07
-0.07,0.941,0.016
-0.086,0.703,0
-0.086,0.609,0.035
-0.012,0.645,0.055
0.09,0.742,0.086
0.113,0.824,0.066
-0.008,1.016,0.016
-0.008,1.102,0.07
0.188,1.207,0.063
0.152,1.32,0.02
0.164,1.457,-0.078
0.039,1.258,0.156
-0.316,0.934,-0.012
-0.18,0.977,-0.145
-0.066,1.418,-0.023
-0.203,1.379,0.039
-0.195,1.02,0.043
-0.055,0.652,-0.082
0.117,0.48,-0.148
0.172,0.387,-0.145
0.133,0.406,-0.164
0.012,0.473,-0.234
-0.031,0.719,-0.199
-0.07,1.5,-0.063
0.133,1.617,0.055
0.426,1.199,-0.363
-0.125,1.625,-0.406
-0.438,1.246,0.301
-0.426,0.773,-0.414
-0.219,0.762,-0.195
-0.16,1.113,0.07
-0.113,1.273,0.148
-0.07,0.918,0.039
-0.133,0.59,-0.016
-0.16,0.637,0.035
-0.121,0.793,0.105
0.02,0.777,0.066
0.066,0.668,-0.035
-0.02,0.77,-0.012
-0.031,1.133,0.004
0.234,1.313,0.031
0.309,1.246,-0.027
0.121,1.305,-0.18
0.008,1.406,0.055
-0.324,1.031,0.25
-0.301,0.918,-0.133
-0.113,1.418,-0.031
-0.023,1.375,0.055
-0.031,1.008,0.027
-0.012,0.699,-0.078
0.078,0.547,-0.129
0.102,0.488,-0.102
0.043,0.5,-0.125
0.016,0.563,-0.16
-0.012,0.844,-0.168
-0.063,1.371,-0.094
0.094,1.461,-0.066
0.363,1.152,-0.309
-0.039,1.551,-0.285
-0.453,1.258,0.27
-0.5,0.758,-0.293
-0.27,0.777,-0.012
-0.207,1.148,0.145
-0.098,1.129,0.098
-0.105,0.836,-0.039
-0.125,0.59,-0.004
-0.113,0.641,0.09
-0.109,0.793,0.129
-0.039,0.891,0.109
0.09,0.945,0.082
0.102,0.953,0.063
-0.027,1.016,0.059
0.102,1.113,0.098
0.305,1.184,0.086
0.246,1.395,-0.059
0.129,1.387,-0.07
-0.289,1.082,0.188
-0.449,0.703,-0.117
-0.262,1.199,-0.137
-0.16,1.633,0.121
-0.195,1.121,0.043
-0.047,0.734,-0.074
0.125,0.66,-0.098
0.227,0.66,-0.063
0.203,0.574,-0.156
0.148,0.449,-0.25
-0.02,0.551,-0.215
-0.066,1.078,-0.039
-0.133,1.598,0.008
0.113,1.398,-0.059
0.418,1.059,-0.395
-0.043,1.184,-0.258
-0.543,1.348,0.398
-0.707,1.039,0.02
-0.332,0.766,-0.242
-0.102,0.938,-0.031
0.023,1.133,0.09
-0.027,0.926,0.027
-0.129,0.625,0.035
-0.09,0.594,0.102
0.043,0.711,0.105
0.211,0.797,0.105
0.371,0.836,0.078
0.176,1.125,0.051
0.082,1.156,0.141
0.027,1.234,0.156
-0.055,1.219,0.055
-0.059,1.336,-0.207
0.031,1.262,0.113
-0.266,0.996,-0.023
-0.238,1.098,-0.18
-0.184,1.539,0.035
-0.195,1.223,0.008
-0.07,0.801,-0.094
0.051,0.559,-0.152
0.109,0.531,-0.145
0.07,0.465,-0.102
0.023,0.43,-0.141
-0.113,0.504,-0.16
-0.16,0.914,-0.004
-0.094,1.605,0.09
0.285,1.551,-0.063
0.383,1.281,-0.332
-0.191,1.438,-0.289
-0.613,1.27,0.227
-0.59,0.723,-0.344
-0.344,0.715,-0.195
-0.145,1.117,0.07
-0.066,1.125,0.07
-0.133,0.824,-0.027
-0.223,0.602,0
-0.188,0.641,0.035
-0.094,0.828,0.113
0.059,0.918,0.102
0.137,0.891,0.047
0.043,0.977,0.082
-0.039,1.039,0.031
0.066,1.086,0.105
0.176,1.188,0.086
0.102,1.297,-0.188
0.102,1.387,0.094
-0.211,1.047,-0.039
-0.227,0.949,-0.316
-0.055,1.336,-0.145
-0.047,1.289,-0.102
-0.055,1.02,-0.109
0.004,0.813,-0.16
0.039,0.793,-0.137
0.035,0.758,-0.105
0.039,0.723,-0.117
0,0.711,-0.129
-0.051,0.75,-0.125
-0.051,0.773,-0.137
0.016,0.789,-0.145
0.066,0.879,-0.156
0.121,1.016,-0.09
0.215,1.285,-0.094
0.27,1.32,-0.137
0.176,1.129,-0.238
-0.199,1.234,-0.293
-0.457,1.195,0.102
-0.434,0.938,-0.145
-0.301,0.73,-0.246
-0.273,0.93,-0.031
-0.273,1.207,0.02
-0.09,1.148,0.055
-0.023,0.926,-0.043
0.004,0.691,-0.063
-0.113,0.641,0.027
-0.375,0.699,0.203
-0.281,0.758,0.078
0.016,0.902,0.055
0.238,1.047,0.059
0.176,1.039,0.035
0.262,1.129,0.082
0.32,1.352,0.129
0.16,1.355,-0.055
0.195,1.344,0
-0.008,1.09,0.063
-0.277,0.855,-0.105
-0.164,1.055,-0.18
-0.098,1.465,-0.09
-0.23,1.234,-0.035
-0.152,0.918,-0.066
-0.031,0.676,-0.145
0.074,0.57,-0.141
0.055,0.496,-0.102
-0.016,0.508,-0.141
-0.074,0.496,-0.223
-0.117,0.641,-0.223
0.031,1.137,-0.145
0.285,1.777,-0.152
0.535,1.484,-0.234
0.453,1.18,-0.379
-0.273,1.168,-0.242
-0.746,1.063,0.176
-0.652,0.848,-0.145
-0.363,0.82,-0.113
-0.117,1.086,0.051
0.035,1.188,0.059
0.02,0.953,0.023
-0.133,0.641,-0.051
-0.227,0.664,0.031
-0.133,0.781,0.117
0.02,0.824,0.09
0.109,0.848,0.066
0.078,0.902,0.055
-0.02,1.023,-0.043
0.129,1.141,0.004
0.262,1.281,0.051
0.234,1.273,-0.016
0.113,1.309,-0.094
-0.027,1.234,0.172
-0.301,0.844,0.074
-0.238,0.957,-0.074
-0.113,1.379,-0.012
-0.117,1.273,0.043
-0.152,1.023,0.02
-0.102,0.727,-0.129
0.027,0.625,-0.152
0.02,0.578,-0.18
-0.051,0.551,-0.141
-0.063,0.551,-0.129
-0.098,0.699,-0.145
-0.027,1.129,-0.074
0.148,1.512,-0.016
0.355,1.438,-0.035
0.133,1.238,-0.32
-0.301,1.492,-0.047
-0.492,1.074,0.059
-0.344,0.672,-0.332
-0.156,0.766,-0.125
-0.102,1.172,0.07
0.07,1.207,0.172
0.023,0.871,0.035
-0.063,0.656,-0.035
-0.094,0.645,0.043
-0.031,0.785,0.086
0.102,0.875,0.102
0.098,0.891,0.109
-0.02,1.016,0.086
-0.023,1.074,0.082
0.082,1.066,0.078
0.004,1.086,-0.004
-0.137,1.281,-0.098
-0.043,1.324,0.215
-0.203,1.105,0.098
-0.188,1.027,-0.156
-0.051,1.121,-0.129
0.023,1.199,-0.07
0.012,0.992,-0.055
0.012,0.742,-0.09
0.012,0.711,-0.129
0.008,0.73,-0.129
0.063,0.773,-0.141
0.074,0.777,-0.176
0.035,0.867,-0.184
0.027,0.977,-0.113
0.148,1.168,-0.105
0.316,1.07,-0.191
0.281,1.082,-0.195
-0.168,1.352,-0.141
-0.48,1.34,0.117
-0.316,0.82,-0.102
-0.105,0.77,0.027
-0.023,1.082,0.172
0.063,1.078,0.039
0,0.934,0.004
-0.055,0.82,0.094
-0.113,0.797,0.066
-0.129,0.816,-0.008
-0.035,0.832,-0.004
0.035,0.922,0.027
0.027,0.891,0.078
0.074,1,0.109
0.133,1.164,0.133
0.141,1.047,0.016
0.113,1.094,0.125
0.051,1.176,0.145
0.129,1.25,-0.023
0.02,1.219,-0.109
-0.305,1.031,-0.023
-0.301,1.082,-0.125
-0.27,1.348,-0.191
-0.211,1.457,-0.141
-0.176,1.094,-0.086
-0.059,0.785,-0.07
0.051,0.539,-0.094
0.066,0.371,-0.137
-0.059,0.418,-0.156
-0.152,0.441,-0.262
-0.094,0.5,-0.336
-0.027,0.953,-0.215
0.16,1.555,-0.035
0.422,1.617,-0.078
0.453,1.406,-0.355
-0.039,1.41,-0.434
-0.492,1.129,0.027
-0.563,0.699,-0.215
-0.352,0.652,-0.203
-0.297,1.051,0.055
-0.152,1.207,0.07
-0.086,1.012,0.004
-0.125,0.758,-0.012
-0.184,0.738,0.035
-0.215,0.863,0.129
-0.184,0.977,0.148
-0.051,0.945,0.086
0.125,0.898,0.035
0.211,0.957,0.023
0.238,1.102,0.098
0.074,1.164,-0.219
-0.09,1.309,-0.273
-0.117,1.18,-0.094
-0.281,1.133,-0.211
-0.242,1.34,-0.164
-0.18,1.086,-0.141
-0.094,0.738,-0.184
0.059,0.613,-0.203
0.145,0.625,-0.188
0.117,0.691,-0.188
0.043,0.711,-0.227
0.008,0.734,-0.219
0.008,1.031,-0.07
0.094,1.277,-0.008
0.309,1.168,-0.047
0.02,1.512,-0.289
-0.273,1.398,0.008
-0.379,0.762,-0.18
-0.316,0.746,-0.266
-0.289,1.121,-0.008
-0.246,1.156,0.098
-0.18,0.879,-0.035
-0.172,0.824,0.02
-0.105,0.922,0.09
-0.074,1.016,0.098
0.012,1.02,0.086
0.156,0.973,0.027
0.184,0.953,0.066
0.066,1.004,-0.027
-0.207,0.879,-0.293
-0.293,0.891,-0.184
-0.367,1.234,-0.082
-0.148,1.309,-0.082
0.02,1.145,-0.195
0.086,0.973,-0.246
0.066,0.863,-0.32
0.094,0.785,-0.297
0.02,0.77,-0.277
-0.031,0.742,-0.152
-0.074,0.754,-0.121
-0.055,0.73,-0.105
-0.043,0.957,-0.172
-0.078,1.5,-0.055
-0.031,1.309,-0.004
-0.059,0.887,-0.137
-0.188,0.934,0.004
-0.297,1.121,0.098
-0.242,0.984,0.086
-0.063,0.891,0.031
0.016,0.895,0.051
-0.016,0.992,0.109
-0.102,1.035,0.078
-0.148,0.977,0.074
-0.172,0.961,0.082
-0.215,0.953,0.039
-0.258,0.973,0.031
-0.328,0.934,0.004
-0.418,0.898,-0.008
-0.457,0.914,0.039
-0.426,0.969,0.051
-0.348,1,0.039
-0.305,1.008,0.031
-0.301,0.977,0.055
-0.277,0.992,0.078
-0.23,0.98,0.098
-0.168,0.984,0.102
-0.156,0.992,0.102
-0.188,0.969,0.109
-0.16,0.98,0.117
-0.113,0.992,0.117
-0.078,0.98,0.113
-0.063,0.945,0.105
-0.09,0.957,0.113
-0.129,0.98,0.133
-0.145,0.98,0.125
-0.148,0.973,0.133
-0.137,0.98,0.125
-0.195,1.012,0.02
-0.246,1.094,-0.004
-0.27,1.32,0.082
-0.336,1.348,0.035
-0.246,1.074,-0.125
-0.09,0.992,-0.184
-0.09,1.012,-0.176
-0.16,0.969,-0.098
-0.191,0.836,-0.121
-0.148,0.703,-0.176
-0.004,0.684,-0.184
0.082,0.734,-0.223
0.09,0.781,-0.277
0.113,0.84,-0.266
0.09,0.953,-0.266
0.004,1.082,-0.301
-0.004,1.121,-0.332
0.078,1.059,-0.344
-0.211,1.262,-0.262
-0.344,1.344,0.063
-0.25,0.93,-0.109
-0.281,0.805,-0.066
-0.32,0.941,0.188
-0.285,1.098,0.176
-0.098,1.051,0.043
-0.043,0.953,0.07
-0.039,0.879,0.141
-0.094,0.891,0.117
-0.125,0.922,0.094
-0.094,0.91,0.09
-0.059,0.895,0.082
-0.043,0.953,0.02
-0.133,0.961,-0.078
-0.184,0.98,-0.121
-0.168,1.109,0.141
-0.215,1.375,0.133
-0.25,1.055,-0.059
-0.133,0.961,-0.094
0.008,1.211,-0.016
0.016,1.023,-0.082
-0.027,0.84,-0.074
-0.039,0.777,-0.043
-0.023,0.785,0.008
-0.059,0.859,0.012
-0.125,0.93,-0.004
-0.129,0.988,-0.02
-0.121,1.031,-0.063
-0.16,1.047,-0.078
-0.234,1.098,0
-0.301,1.055,0.082
-0.273,1.023,0.094
-0.148,0.949,0.008
0.004,0.895,0.012
-0.074,0.98,0.094
-0.219,1.012,0.18
-0.273,0.984,0.133
-0.203,0.973,0.094
-0.121,1.063,0.102
-0.043,1.02,0.094
-0.047,0.961,0.063
-0.086,0.957,0.086
-0.121,0.992,0.094
-0.156,1.004,0.105
-0.172,1.012,0.09
-0.152,0.992,0.09
-0.125,0.984,0.082
-0.145,1.008,0.09
-0.148,0.996,0.094
-0.145,0.988,0.094
-0.121,0.98,0.078
-0.117,0.973,0.055
-0.09,1.004,0.055
-0.074,1.016,0.051
-0.063,1.004,0.027
-0.078,1,0.016
-0.09,0.996,0.004
-0.09,1.012,0.004
-0.094,1.004,0.023
-0.082,0.98,0.035
-0.082,0.984,0.059
-0.074,1.047,0.125
-0.082,1.027,0.152
-0.063,0.996,0.137
-0.055,0.98,0.094
-0.035,0.965,0.078
-0.055,0.992,0.031
-0.078,1.012,-0.027
-0.125,1.02,-0.039
-0.133,1.02,-0.031
-0.105,1.02,-0.047
-0.082,0.973,-0.086
-0.051,0.957,-0.102
-0.047,0.988,-0.109
-0.059,1.023,-0.121
-0.059,0.977,-0.148
-0.063,0.961,-0.18
-0.059,1,-0.199
-0.043,1.016,-0.215
-0.031,0.941,-0.238
-0.047,0.938,-0.254
-0.07,0.941,-0.27
-0.063,0.914,-0.285
-0.07,0.926,-0.281
-0.074,0.953,-0.273
-0.066,0.957,-0.281
-0.07,0.961,-0.281
-0.066,0.934,-0.273
-0.055,0.898,-0.258
-0.043,0.867,-0.254
-0.047,0.84,-0.246
-0.063,0.836,-0.242
-0.074,0.848,-0.227
-0.059,0.922,-0.219
-0.016,0.996,-0.234
0.09,1.074,-0.27
0.195,1.09,-0.285
0.035,1.18,-0.336
-0.289,1.371,-0.098
-0.266,0.98,-0.113
-0.211,0.773,-0.188
-0.246,0.969,0.031
-0.254,1.23,0.078
-0.121,1.117,-0.031
-0.078,0.859,-0.059
-0.102,0.773,-0.023
-0.094,0.813,0.023
-0.055,0.859,0.059
0.023,0.91,0.07
0.137,0.922,0.066
0.16,0.902,0.027
0.047,0.941,-0.004
0.004,0.957,0.027
0.09,1.082,0.125
0.109,1.23,0.148
0.07,1.219,-0.129
0.258,1.289,-0.211
-0.074,1.18,-0.07
-0.336,0.973,-0.125
-0.277,1.262,-0.137
-0.09,1.402,-0.117
-0.082,1.082,-0.121
-0.035,0.75,-0.156
0.066,0.664,-0.145
0.156,0.621,-0.156
0.176,0.578,-0.18
0.207,0.527,-0.199
0.102,0.609,-0.234
-0.004,0.867,-0.156
-0.039,1.328,-0.082
0.211,1.453,-0.066
0.383,1.109,-0.305
-0.313,1.383,-0.434
-0.824,1.219,0.359
-0.73,0.832,-0.262
-0.246,0.84,-0.25
0.031,1.184,0.078
0.027,1.27,0.102
-0.063,1,0.016
-0.117,0.75,-0.051
-0.133,0.766,-0.039
-0.09,0.66,0.07
0.012,0.527,0.047
-0.023,0.402,-0.027
-0.074,0.609,0.031
0.012,0.902,0.07
0.223,1.004,-0.012
0.047,0.945,-0.086
-0.488,0.836,-0.113
-0.684,1.082,-0.066
-0.004,1.746,-0.215
0.461,1.609,-0.242
0.055,1.242,-0.195
-0.059,0.984,-0.129
-0.004,0.77,-0.055
0.109,0.504,-0.102
0.152,0.289,-0.211
0.125,0.258,-0.207
0.063,0.73,-0.02
0.129,1.48,0.055
0.07,1.574,0.051
-0.32,1.363,-0.09
-0.574,1.336,0.02
-0.426,1.215,0.145
-0.301,1.102,-0.098
0.008,1.328,0.125
0.277,1.211,0.254
0.152,0.844,-0.016
-0.094,0.699,0.031
-0.102,0.621,0.16
0,0.594,0.063
0.02,0.531,-0.027
0.059,0.672,-0.035
0.059,0.922,0.063
0.031,1.148,0.031
-0.445,0.867,-0.227
-0.648,1.336,-0.074
-0.176,1.598,-0.207
0,1.395,-0.113
-0.102,1.148,-0.109
0.039,1.023,-0.191
0.184,0.789,-0.027
0.238,0.566,-0.063
0.371,0.438,-0.141
0.348,0.371,-0.137
0.121,0.762,-0.055
-0.082,1.504,0.113
-0.121,1.402,0.066
-0.371,1.242,-0.125
-0.621,1.258,0.129
-0.652,1.488,0.191
-0.301,1.449,0.168
0.203,1.043,0.047
0.285,0.781,-0.012
0.031,0.988,0.176
-0.098,0.891,0.191
-0.066,0.629,-0.055
-0.094,0.551,-0.016
-0.051,0.68,0.133
-0.023,0.777,0
0.074,0.906,-0.094
0.059,1.012,0.059
-0.324,0.918,-0.16
-0.586,1.129,-0.047
-0.016,1.617,-0.078
0.219,1.559,-0.125
0.07,1.145,-0.094
-0.047,0.805,-0.137
-0.004,0.68,-0.078
0.02,0.582,-0.07
0.141,0.477,-0.117
0.152,0.523,-0.145
0.02,0.758,-0.117
-0.156,1.367,0.07
-0.063,1.313,0.098
-0.16,1.383,-0.195
-0.355,1.516,0.148
-0.422,1.367,0.078
-0.355,1.191,-0.012
0.016,1.219,0.199
0.121,0.973,0.07
-0.047,0.66,0.047
-0.078,0.668,0.105
-0.023,0.734,0.082
-0.039,0.66,-0.008
-0.117,0.723,0.035
-0.156,0.895,0.125
0,1.027,0.066
0.051,1.004,0.016
-0.086,0.988,-0.098
-0.336,1.195,-0.141
-0.023,1.496,-0.02
0.07,1.398,-0.148
0.039,1.316,-0.121
0.059,1.129,-0.102
0.039,0.887,-0.066
-0.004,0.699,-0.07
0.027,0.621,-0.078
0.047,0.477,-0.066
0.082,0.406,-0.09
0,0.652,-0.059
-0.105,1.125,0.098
0.09,1.313,0.082
0.074,1.172,-0.063
-0.195,1.512,-0.078
-0.355,1.582,0.273
-0.25,1.094,-0.043
-0.203,1.031,-0.039
-0.004,1.281,0.254
0.07,1.055,0.121
0.031,0.938,0.012
0.031,0.934,0.113
0.02,0.73,0.074
0.016,0.703,-0.027
-0.012,0.793,0.066
-0.098,0.766,0.09
-0.105,0.773,0.039
0.008,0.941,0.059
-0.008,0.965,0.098
-0.008,0.934,0.039
-0.086,0.922,-0.184
-0.105,1.105,-0.219
0.039,1.516,-0.184
0.086,1.566,-0.227
0.008,1.379,-0.129
-0.031,1.121,-0.16
0.063,1.008,-0.148
0.125,0.934,-0.133
0.066,0.789,-0.117
-0.027,0.621,-0.086
-0.078,0.574,-0.09
-0.113,0.656,-0.07
-0.105,0.703,-0.098
-0.043,0.719,-0.086
0.008,0.859,-0.102
0.129,1.113,0.008
0.277,1.242,0.078
0.293,1.168,-0.012
0.238,1.047,-0.098
0.02,1.211,-0.066
-0.262,1.406,0.199
-0.313,1.32,0.145
-0.32,1.164,-0.066
-0.223,1.281,0.055
-0.055,1.234,0.086
-0.059,1.027,0.086
-0.086,0.852,0.086
0,0.785,0.094
0.191,0.723,0.098
0.273,0.707,0.059
0.07,0.863,0.066
-0.141,1.055,0.039
-0.035,1.02,0
0.16,1.031,-0.121
0.031,1.246,-0.293
0.055,1.422,-0.031
-0.316,1.109,0.129
-0.359,0.984,-0.141
-0.141,1.133,-0.16
-0.082,1.293,-0.145
-0.156,1.078,-0.109
-0.137,0.859,-0.145
-0.082,0.766,-0.129
0.051,0.82,-0.09
0.137,0.813,-0.141
0.176,0.777,-0.195
0.125,0.758,-0.203
0.004,0.828,-0.176
-0.043,0.973,-0.102
0.035,1.043,-0.012
0.105,1.102,-0.098
0.098,1.086,-0.18
-0.094,1.242,-0.16
-0.277,1.328,0.023
-0.262,0.945,-0.148
-0.156,0.727,-0.105
-0.172,0.875,0.035
-0.152,1.113,0.094
-0.125,1.109,0.008
-0.18,1.023,0.016
-0.219,0.957,0.039
-0.215,0.961,0.094
-0.172,0.973,0.09
-0.066,0.984,0.094
0.012,0.996,0.055
0.027,1.012,0.063
0.02,0.996,0.066
-0.004,0.973,0.059
-0.012,0.977,0.09
-0.008,0.98,0.074
0.035,1.016,0.082
0.059,0.992,0.063
0,0.984,0.008
-0.09,1,-0.031
-0.129,1.055,-0.012
-0.113,1.051,0.039
-0.102,1.027,-0.012
-0.066,1.027,-0.055
-0.051,0.996,-0.066
-0.051,0.969,-0.063
-0.043,0.961,-0.121
-0.051,0.984,-0.145
-0.086,0.992,-0.113
-0.164,0.969,-0.109
-0.145,0.934,-0.133
-0.063,0.945,-0.121
-0.031,0.996,-0.113
-0.047,1,-0.121
-0.078,0.953,-0.145
-0.086,1.02,-0.148
-0.035,1.02,-0.117
-0.039,0.953,-0.16
-0.078,0.934,-0.156
-0.09,0.945,-0.152
-0.031,0.988,-0.133
0.047,1.016,-0.121
0.031,1.008,-0.133
-0.016,0.984,-0.16
-0.07,0.957,-0.156
-0.129,0.961,-0.164
-0.152,0.973,-0.168
-0.117,1.004,-0.172
-0.063,0.996,-0.156
-0.035,0.984,-0.152
-0.02,0.934,-0.152
-0.031,0.945,-0.125
-0.023,0.984,-0.145
0.016,0.969,-0.145
0.039,0.953,-0.156
0.059,1.004,-0.148
0.055,1.031,-0.152
0.027,0.977,-0.141
0,0.957,-0.145
-0.008,0.977,-0.148
0.008,0.953,-0.141
0.031,0.938,-0.141
0.043,0.957,-0.133
0.043,0.973,-0.141
0.066,0.98,-0.145
0.074,1.039,-0.164
-0.07,1.172,-0.156
-0.113,1.09,-0.145
-0.105,0.898,-0.266
-0.125,0.895,-0.23
-0.23,1.004,-0.059
-0.293,1.07,0.027
-0.219,0.93,-0.008
-0.07,0.93,0.016
0.016,1.047,0
0.082,1.098,0.039
-0.043,1.016,0.063
-0.164,0.938,0.047
-0.086,0.902,0.074
0.035,0.953,0.023
0.063,0.914,0.063
-0.039,0.723,0.031
-0.063,0.691,-0.008
-0.129,0.723,0
-0.086,0.77,0.02
0.031,0.789,0.012
0.105,0.941,0.043
-0.008,0.934,0.043
-0.234,0.723,-0.125
-0.398,0.914,-0.336
-0.004,1.762,-0.52
0.543,1.984,-0.121
0.086,1.281,-0.094
-0.102,0.855,-0.199
-0.027,0.656,-0.195
0.023,0.609,-0.168
0.063,0.57,-0.121
-0.043,0.676,-0.059
-0.098,0.984,-0.059
0.098,1.086,0.086
0.199,0.836,-0.023
0.164,0.844,-0.203
0.199,0.914,-0.059
0.047,1.082,0.02
-0.023,1.133,-0.051
-0.199,1.32,-0.125
-0.297,1.301,0.164
-0.297,1.105,0.07
-0.219,1.359,-0.137
0.012,1.129,0.074
0.031,0.742,0.09
-0.059,0.676,0.059
-0.027,0.758,0.109
0.012,0.719,0.008
-0.039,0.688,-0.008
0.02,0.738,0.07
0.055,0.727,-0.039
0.109,0.918,-0.078
-0.336,0.738,-0.227
-0.555,1.277,-0.195
-0.035,2.07,-0.219
0.453,1.957,-0.152
0.156,1.422,-0.109
0.078,0.992,-0.086
0.133,0.648,-0.066
0.078,0.375,-0.082
-0.039,0.152,-0.156
-0.219,0.238,-0.176
-0.16,0.645,0.043
0.055,1.18,0.148
0.105,1.316,0.129
0.156,1.047,-0.238
-0.137,1.254,-0.242
-0.438,1.613,0.156
-0.477,1.711,0.219
-0.125,1.402,-0.105
0.133,1.254,0.141
0.117,0.977,0.059
-0.168,0.703,-0.027
-0.281,0.633,0.059
-0.109,0.414,0.031
-0.008,0.352,0.023
-0.047,0.719,0.039
0.004,0.84,0.027
0.137,0.922,-0.078
-0.082,0.82,-0.031
-0.43,0.945,-0.152
-0.383,1.496,-0.188
0.156,1.828,-0.277
0.219,1.527,-0.238
0.109,1.395,-0.16
0.102,1.129,-0.105
0.047,0.859,-0.074
-0.035,0.48,-0.09
-0.078,0.316,-0.09
-0.109,0.242,-0.18
-0.145,0.43,-0.039
-0.152,0.867,0.051
0.012,1.289,0.078
0.039,1.305,-0.023
-0.215,1.438,-0.203
-0.555,1.633,0.148
-0.531,1.383,0.059
-0.305,1.227,-0.176
0.117,1.422,0.105
0.41,0.996,0.094
0.266,0.535,-0.133
