------------ Data File Created By ActiGraph GT3X+ ActiLife v6.13.4 Firmware v1.9.2 date format yyyy-MM-dd at 30 Hz  -----------
Serial Number: MOS2E28230210
Start Time 14:32:00
Start Date 2025-10-09
Epoch Period (hh:mm:ss) 00:00:00
Download Time 15:43:59
Download Date 2025-10-09
Current Memory Address: 0
Current Battery Voltage: 0     Mode = 12
--------------------------------------------------
Accelerometer X,Accelerometer Y,Accelerometer Z
-0.004,0.406,-0.664
0.555,0.457,-0.363
0.766,0.633,0.176
0.73,0.703,0.582
0.758,0.719,0.703
0.754,0.707,0.473
0.602,0.688,0.285
0.688,0.652,0.203
0.805,0.605,0.273
0.77,0.602,0.297
0.688,0.613,0.266
0.703,0.613,0.25
0.727,0.555,0.277
0.719,0.523,0.262
0.723,0.551,0.234
0.762,0.578,0.215
0.754,0.602,0.18
0.785,0.637,0.176
0.902,0.723,0.16
0.887,0.66,0.277
0.66,0.852,0.211
0.574,0.895,0.199
0.004,0.715,0.438
-0.156,0.609,0.676
0.219,0.754,0.656
-0.055,0.742,0.832
0.227,0.539,0.73
0.633,0.633,0.383
0.641,0.738,-0.016
-0.148,0.977,-0.438
0.574,0.598,-0.711
0.438,0.781,-0.184
0.395,0.852,-0.004
0.535,0.555,0.473
0.395,0.246,-1.008
0.719,0.293,-1.199
0.121,-0.008,-0.559
0.398,0.855,-0.602
0.453,0.77,-0.793
0.238,0.449,-0.789
0.078,0.117,-1.066
0.242,0.605,-0.957
0.391,0.367,-0.578
0.105,0.461,-0.996
0.266,1.309,-1.391
0.313,0.57,-1.309
0.922,-0.117,-0.598
0.168,0.563,-1.059
-0.145,0.422,-1.207
0.199,0.41,-0.738
0.277,0.859,-1.359
0.137,0.664,-1.148
0.113,0.719,-0.844
-0.051,0.691,-0.531
-0.301,0.781,-0.375
0.094,0.398,-0.691
0.469,0.051,-1.164
0.379,0.242,-1.234
0.02,0.406,-0.914
-0.109,0.375,-0.793
0.133,0.098,-1
0.449,-0.059,-1.004
0.012,0.09,-0.789
0.051,0.012,-0.801
-0.145,0.453,-1.004
0.484,0.164,-0.641
0.164,-0.27,-1.195
0.098,-0.125,-1.004
-0.055,0.012,-0.684
-0.031,-0.051,-0.73
0.176,-0.031,-0.707
-0.055,0.348,-0.992
0.129,0.5,-1.211
-0.121,0.582,-1.055
-0.055,0.332,-0.984
0.008,0.344,-1.121
0.023,0.285,-1.148
0.125,0.262,-1.125
0.211,0.398,-1.258
0.348,0.332,-1
0.141,0.273,-1.023
-0.488,0.383,-1.094
0.035,0.152,-1.043
-0.184,0.262,-0.988
-0.09,0.25,-1.066
-0.215,0.488,-0.848
-0.379,0.637,-0.922
-0.313,0.621,-0.867
-0.016,0.648,-0.891
-0.398,0.691,-0.617
-0.379,0.859,-0.258
-0.555,0.996,-0.461
-0.457,0.887,-0.055
-0.5,0.75,0.113
-0.73,0.816,0.063
-0.047,0.926,0.066
0.09,0.77,-0.066
0.484,0.754,-0.23
0.641,0.762,-0.531
0.133,0.789,-0.164
-0.105,1.059,-0.324
-0.27,1.504,-0.719
-0.605,1.117,-0.109
-0.422,1.098,-0.48
-0.52,0.977,-0.063
-0.523,0.453,-0.66
-0.563,0.789,-1.016
0.07,0.594,-0.723
0.438,0.273,-1.152
-0.078,0.793,-0.535
-0.043,1,-1.074
-0.008,0.98,-0.699
0.371,0.539,0.313
0.184,0.832,-0.063
0.184,0.762,0.32
0.309,1.133,0.41
0.148,0.883,0.195
-0.109,0.992,0.262
-0.063,0.969,0.605
-0.273,1.133,0.207
-0.355,1.094,-0.391
0.488,0.988,-0.301
-0.109,0.977,-0.016
-0.641,1.191,0.473
-0.094,0.98,-0.805
1.047,0.777,-0.254
-0.352,1.039,0.582
0.035,0.93,-0.246
0.23,0.988,-0.074
0.031,0.867,-0.004
-0.004,1.109,0.078
-0.07,1.051,-0.004
0.023,0.922,-0.059
0.051,0.988,-0.047
0.105,1.063,0.047
0.031,0.973,-0.031
-0.09,1.051,-0.004
0.133,1.004,-0.004
0.055,0.93,-0.051
-0.031,1.008,-0.055
0.008,1.008,-0.086
0.105,0.977,-0.098
-0.051,0.977,-0.113
-0.176,0.957,-0.105
-0.043,0.961,-0.109
-0.012,0.953,-0.098
-0.035,0.988,-0.086
-0.016,1,-0.07
0.031,1.016,-0.051
0.023,1.031,-0.043
0.016,1.008,-0.055
0.02,0.996,-0.047
0.016,0.988,-0.055
-0.008,0.984,-0.074
-0.027,0.988,-0.078
-0.016,0.988,-0.07
-0.008,0.988,-0.051
-0.012,0.973,-0.074
0.012,0.992,-0.059
0.012,1.012,-0.051
0.02,1.012,-0.031
-0.016,1.004,-0.047
-0.016,0.996,-0.055
-0.016,0.984,-0.063
-0.02,0.992,-0.059
-0.004,1.004,-0.063
-0.004,0.996,-0.055
-0.008,0.992,-0.059
-0.012,0.992,-0.051
-0.004,0.992,-0.051
-0.004,0.984,-0.055
0.02,0.988,-0.051
0.039,0.992,-0.055
0.016,0.996,-0.055
-0.012,0.996,-0.063
-0.012,1.004,-0.059
-0.023,0.996,-0.07
-0.039,0.992,-0.078
-0.035,1,-0.086
0.004,0.992,-0.07
0.008,1.004,-0.07
0.004,0.988,-0.066
0.016,1,-0.055
0.086,0.965,-0.059
-0.039,1,-0.047
0.047,0.98,-0.023
0.07,0.992,0
0.039,1.008,0
0.031,0.977,-0.016
0.02,1,-0.02
0,0.996,-0.055
0.023,1.004,-0.055
0.027,1.008,-0.051
0.031,0.98,-0.074
0.023,0.977,-0.066
0.031,1.004,-0.055
0.027,0.988,-0.023
0.043,0.992,-0.027
0.031,0.98,-0.004
0.059,0.992,0.023
0.063,1,0.027
0.063,0.996,0.02
0.059,0.992,0.012
0.039,0.996,0
0.016,0.984,-0.023
0.023,0.988,-0.035
0.027,1,-0.039
0.023,0.992,-0.047
0.035,0.992,-0.035
0.047,0.988,-0.023
0.043,1,-0.031
0.039,0.996,-0.023
0.043,0.988,-0.016
0.035,0.992,-0.02
0.031,0.996,-0.027
0.023,0.996,-0.031
0.016,0.992,-0.059
0.012,1.004,-0.051
0.012,0.988,-0.055
0.008,0.98,-0.051
0.016,0.992,-0.055
0.039,0.992,-0.039
0.063,0.992,-0.023
0.063,0.996,-0.012
0.047,1,-0.012
0.039,1.004,-0.016
-0.008,0.992,-0.039
0.023,0.988,-0.047
0.016,0.992,-0.055
0.02,1,-0.055
0.031,0.992,-0.059
0.039,0.98,-0.051
0.047,0.992,-0.027
0.047,0.996,-0.023
0.043,0.992,-0.031
0.043,0.992,-0.031
0.023,0.996,-0.039
0.008,0.992,-0.051
0.016,0.992,-0.055
0.027,0.988,-0.051
0.023,1.008,-0.051
0.023,1,-0.055
0.031,0.996,-0.055
0.035,0.988,-0.051
0.031,0.984,-0.051
0.047,0.988,-0.055
0.039,0.996,-0.047
0.02,0.996,-0.051
0.008,0.98,-0.055
0.016,0.988,-0.051
0.023,0.992,-0.051
0.023,0.996,-0.047
0.027,1.004,-0.039
0.016,0.988,-0.043
0.027,0.988,-0.051
0.027,1,-0.051
0.031,0.988,-0.039
0.023,0.992,-0.043
0.035,0.996,-0.047
0.027,0.992,-0.051
0.027,0.992,-0.051
0.02,0.992,-0.051
0.023,0.992,-0.055
0.027,0.984,-0.047
0.027,0.992,-0.051
0.035,1,-0.047
0.027,0.996,-0.051
0.031,0.984,-0.051
0.031,0.996,-0.055
0.027,0.996,-0.055
0.035,1,-0.051
0.023,0.996,-0.047
0.023,0.992,-0.051
0.031,0.988,-0.055
0.023,0.992,-0.051
0.023,0.992,-0.066
0.023,0.992,-0.063
0.02,0.992,-0.059
0.027,0.984,-0.055
0.027,0.984,-0.051
0.027,0.988,-0.051
0.031,1.004,-0.043
0.027,0.992,-0.047
0.02,0.992,-0.047
0.012,0.992,-0.051
0.023,0.996,-0.047
0.023,0.992,-0.043
0.016,0.996,-0.043
0.027,0.996,-0.043
0.02,0.996,-0.039
0.008,0.988,-0.047
0.016,0.992,-0.047
0.023,1.004,-0.035
0.035,0.988,-0.035
0.051,0.988,-0.031
0.059,0.98,-0.016
0.063,0.992,-0.02
0.055,0.996,-0.02
0.023,1.012,-0.012
0.027,0.996,-0.031
0.027,0.977,-0.063
0.031,0.988,-0.043
0.047,0.984,-0.027
0.039,1.008,-0.016
0.02,1.004,-0.023
0.016,0.988,-0.051
0.023,0.973,-0.051
0.023,0.984,-0.059
0.031,1,-0.051
0.035,1,-0.043
0.023,0.992,-0.051
0.031,0.992,-0.047
0.027,0.988,-0.047
0.02,0.996,-0.043
0.016,0.996,-0.035
0.016,1,-0.047
0.016,0.996,-0.051
-0.004,0.996,-0.047
0.012,1,-0.051
0.02,0.996,-0.043
0.016,0.988,-0.039
0.023,0.988,-0.031
0.027,0.996,-0.027
0.02,0.996,-0.047
0.008,0.996,-0.047
0.016,0.992,-0.051
0.016,0.992,-0.047
0.012,1,-0.039
0.012,0.977,-0.035
0.043,1.008,0.008
0.02,0.984,-0.039
0.016,1,-0.016
0.027,1,-0.012
0.066,1.004,0.027
0.043,0.984,-0.012
0.016,1.07,0
0.059,0.969,-0.043
0.055,0.988,-0.039
0.082,0.961,-0.012
0.094,0.969,-0.047
0.063,1.008,0.086
0.09,1.043,0.043
0.094,0.941,-0.043
0.105,0.996,0.039
0.09,0.988,0.063
0.047,1,0.027
-0.031,0.984,-0.086
0,1.023,-0.039
-0.004,0.992,-0.133
0.012,0.996,-0.098
0.023,0.992,-0.105
0,0.973,-0.121
0.004,0.977,-0.117
0.02,0.992,-0.09
0.02,0.977,-0.094
0.047,0.965,-0.086
0.031,1.035,-0.059
0.016,1,-0.094
-0.035,0.945,-0.16
0.004,0.98,-0.094
-0.012,1.035,-0.094
-0.012,0.969,-0.129
0,0.984,-0.105
0.02,1.008,-0.082
0.043,0.984,-0.063
0.02,0.977,-0.105
0.004,1.016,-0.066
0.012,0.992,-0.09
0.023,0.984,-0.07
0.027,0.992,-0.086
0.012,0.977,-0.113
0.023,0.953,-0.125
0.023,1.008,-0.094
0.023,0.977,-0.113
0.027,0.98,-0.109
0.023,1,-0.105
0.008,0.996,-0.113
0.023,0.988,-0.102
-0.008,0.98,-0.09
0.008,0.988,-0.129
0.016,1,-0.109
-0.016,0.996,-0.141
-0.063,0.984,-0.168
0.008,0.969,-0.098
0.047,0.961,-0.105
0.039,0.977,-0.094
0.117,1.02,-0.043
0.063,0.984,-0.109
-0.023,1.02,-0.141
-0.016,0.977,-0.133
-0.016,1.008,-0.078
-0.039,0.965,-0.129
-0.012,1.004,-0.07
0.066,0.992,-0.012
0.063,0.992,-0.078
0.008,1.023,-0.004
-0.098,0.98,-0.227
-0.07,0.98,-0.145
0.027,1.027,-0.02
-0.012,1.016,-0.059
-0.039,0.98,-0.113
-0.078,1.066,0.02
-0.047,1.148,-0.043
-0.051,1,-0.148
-0.059,1.102,0.066
0.094,0.996,-0.043
-0.051,1.066,-0.102
0,0.922,-0.137
0.02,0.871,-0.168
-0.023,1.086,-0.07
0.004,1.063,-0.008
0.09,1.023,-0.063
0.129,1.113,-0.082
0.129,0.977,-0.078
0.066,0.91,-0.109
-0.008,0.949,-0.18
0.074,0.918,-0.055
-0.141,0.98,-0.066
-0.125,0.965,-0.27
-0.012,0.973,-0.164
-0.07,1.027,-0.047
-0.07,1.086,-0.094
-0.051,0.988,-0.18
-0.098,1.156,-0.074
0.059,1.125,0.133
0.059,0.754,-0.211
-0.004,0.824,-0.281
-0.133,0.84,-0.324
-0.324,1.301,-0.043
-0.203,1.234,0.195
-0.359,1.156,-0.102
-0.66,0.883,-0.023
-0.191,0.781,-0.074
0.277,1.18,0.117
0.082,1.094,0.355
0.43,0.941,0.352
0.648,0.813,0.566
0.453,0.309,0.184
0.176,1.395,-0.129
-0.137,1.273,0.02
0.059,0.973,0.051
-0.164,1.121,0.156
-0.008,0.891,-0.277
0.051,0.898,0.176
0.023,0.938,0.281
0.188,0.93,-0.117
-0.055,1.105,-0.004
0.012,0.887,-0.164
-0.082,1.059,0.145
-0.078,1.176,0.047
0.051,0.91,-0.047
0.004,0.844,0
-0.148,0.934,0.109
0.023,1.02,0.41
0.125,0.551,-0.441
0.227,1.195,0.094
0.184,0.922,-0.012
0.094,1.027,0.066
-0.027,1.043,0.086
-0.047,0.992,0.043
-0.012,0.965,0.035
0.047,1.004,0.051
0.059,1.016,0.086
0.102,1,0.059
0.059,0.984,0.066
0.063,0.969,0.066
0.07,1.016,0.066
0.012,1.016,0.09
0.039,0.988,0.105
0.086,0.957,0.09
0.055,0.977,0.043
0.031,1.18,0.098
0.051,1.055,0.121
0.078,0.949,0.039
0.047,0.875,0.035
0.074,0.977,0.078
0.07,1,0.117
0.082,1.043,0.102
0.047,0.984,0.07
0.051,0.934,0.109
0.074,1.051,0.133
0.023,0.969,0.051
0.023,0.922,0.07
0.074,0.98,0.055
0.086,0.785,0.039
0.121,0.594,-0.168
0.176,0.914,0.121
0.477,1.375,0.012
-0.16,1.008,-0.207
-0.637,-0.055,0.031
-0.594,0.27,0.387
-0.914,2.074,0.004
0.359,1.848,-0.18
-0.191,1.238,-0.191
-0.227,0.676,-0.16
-0.16,0.664,-0.125
-0.227,0.727,-0.086
-0.18,0.887,-0.098
-0.219,1.055,-0.074
-0.141,1.023,-0.105
-0.035,1.051,-0.027
-0.168,0.957,-0.078
-0.145,0.969,-0.09
-0.156,0.973,-0.09
-0.188,0.98,-0.113
-0.258,0.984,-0.105
-0.176,1.004,-0.109
-0.32,0.93,-0.078
-0.855,0.387,-0.059
0.953,1.457,-0.133
0.684,1.086,-0.18
0.465,1.176,-0.168
-0.148,1.129,-0.043
-0.094,0.895,-0.039
0,0.887,-0.113
0.016,0.922,-0.109
0.07,0.996,-0.094
0.047,1,-0.113
0.039,1.016,-0.102
0.695,1.121,-0.195
-0.129,0.918,-0.039
-0.016,1.234,0
0.137,1.023,-0.043
0.133,1.004,-0.145
0.145,0.973,-0.047
0.07,1.012,-0.148
-0.098,1.41,-0.074
0.152,0.691,-0.258
0.121,0.93,-0.211
0.25,0.809,-0.227
0.227,0.914,-0.137
0,1.055,-0.184
0.133,1.184,-0.23
0.188,0.754,-0.293
0.129,0.73,-0.273
0.395,1.035,-0.305
0.25,0.703,-0.355
-0.375,0.617,-0.395
-0.145,1.082,-0.285
-0.32,1.082,-0.277
-0.227,0.91,-0.16
-0.215,0.836,-0.133
-0.406,0.898,-0.098
-1.004,0.973,-0.164
-0.434,1.465,0.727
-0.59,1.012,-0.41
0.27,1.844,0.699
1.059,0.504,0.25
0.375,0.984,-0.398
0.582,1.402,-0.406
-0.605,0.574,0.492
-0.984,0.227,0.141
-0.383,0.367,-0.48
-1.496,0.172,0.156
0.461,2.152,-0.191
0.227,1.418,-0.332
-0.051,1.605,-0.203
-0.305,1.047,-0.68
-0.191,0.449,-0.246
0.184,1.02,-0.102
-0.707,1.215,0.434
-0.34,0.875,0.691
-0.648,0.875,0.379
-0.41,0.621,-0.055
0.082,0.602,-0.547
0.531,1.379,0.512
0.262,1.164,0.293
0.727,1.098,0.078
0.508,1.039,0.266
0.234,0.844,-0.301
-0.066,0.977,-0.172
0.066,1.031,0.102
-0.027,0.957,0.094
-0.051,0.965,-0.012
-0.051,0.914,0.008
0,0.91,0
-0.055,0.844,-0.023
0.242,1.082,0.176
0.168,0.867,0.105
0.699,1.133,0.141
0.828,1.172,0.27
-0.461,0.945,0.184
-0.262,0.852,0.121
-0.074,0.742,-0.137
0.203,0.953,-0.078
0.297,1.133,-0.004
0.031,1.156,0.109
-0.164,0.883,0.031
0.059,0.961,-0.043
-0.016,0.926,-0.07
-0.09,0.891,0.059
0.102,1.211,0.129
0.117,1.074,0.008
0.078,0.977,0.07
-0.004,0.961,0.063
0.293,1.074,-0.07
0.164,0.945,-0.027
0.113,0.801,-0.098
0.215,1.188,0.293
0.258,1.074,0.105
0.223,1.043,0.117
-0.031,0.891,0.102
-0.063,1.012,0.055
0.156,1.074,0.16
0.129,0.926,-0.164
0.012,1.039,-0.055
-0.172,0.953,0.094
-0.074,0.863,0
0.008,0.984,-0.152
-0.031,0.906,-0.105
-0.055,0.871,-0.059
-0.039,1.227,0.238
0.078,1.164,0.164
0.125,0.75,-0.031
-0.031,0.801,-0.172
0.09,0.859,-0.059
0.02,0.867,-0.117
0.156,0.957,0.152
-0.027,0.953,0.195
-0.066,1.234,-0.059
0.055,1.262,-0.09
-0.105,1.195,-0.023
-0.02,1.121,0.094
0.023,0.898,0.121
-0.02,0.914,0.141
-0.082,1.105,0.34
0.012,0.605,-0.336
-0.004,0.957,-0.098
-0.02,0.797,-0.016
-0.125,1.133,-0.113
0,1.031,0.074
0.063,0.828,0.02
-0.184,1.039,0.117
-0.074,0.984,0.047
0.008,1.152,0.203
0.137,1.066,0.223
0.004,0.813,-0.004
0.199,0.957,0.145
0.121,0.609,-0.117
0,1.035,0.258
-0.07,1.156,0.496
-0.383,1.422,0.637
-0.074,1.063,0.23
-0.141,0.902,0.207
-0.09,0.891,0.23
0.082,0.914,-0.004
0,0.977,0.074
-0.066,0.898,0.047
-0.055,1.02,0.09
0.07,1.043,0.07
-0.039,1.102,0.082
-0.086,0.969,0.059
0.043,0.973,0.031
-0.043,1.063,0.012
0.047,0.973,-0.008
0.055,0.898,-0.074
0.043,0.977,-0.039
0.074,0.98,-0.063
0.023,0.941,-0.094
-0.043,1.02,-0.082
-0.195,1.008,-0.078
0.027,0.961,-0.102
0.023,1,-0.09
0.004,1.051,-0.117
0.098,0.988,-0.141
-0.008,1.125,-0.047
0.082,0.844,-0.184
0.07,0.895,-0.156
0.094,0.992,-0.137
-0.039,0.934,-0.133
0.012,0.887,-0.117
-0.094,0.961,-0.086
-0.152,1,-0.133
0.02,1.109,-0.117
-0.004,0.977,-0.164
0,0.953,-0.152
-0.02,0.938,-0.137
0.004,0.926,-0.109
0.023,1.004,-0.055
0.012,0.996,-0.055
0.008,0.98,-0.047
-0.012,0.977,-0.047
-0.012,1,-0.027
-0.012,1.035,0.012
-0.004,1.047,0.031
0.008,0.996,0.031
0.055,0.914,0.008
0.016,1.012,-0.008
-0.078,1,0.051
-0.109,0.996,0.051
-0.113,1.008,0.047
-0.07,1.008,0.059
0,0.984,0.063
0.055,0.988,0.07
0.07,1.023,0.094
0.066,1.016,0.102
0.039,1,0.109
0.004,0.996,0.117
-0.008,0.973,0.109
0.012,0.984,0.105
0.023,1.008,0.105
0.086,1.422,0.418
-0.125,0.785,-0.023
0,1.043,0.125
0.027,1.078,0.195
0.094,1.031,0.148
0.102,0.93,0
0.035,0.793,-0.043
-0.008,0.922,-0.004
0.094,1.074,0.094
0.066,1.047,0.105
0.008,0.879,0.363
0.207,1.055,0.027
0.277,1.125,-0.047
0.293,0.852,-0.02
0.125,0.914,0.027
0.066,1.012,0.031
0.074,0.938,-0.035
0.051,0.914,-0.023
0.238,0.832,-0.137
0.086,1.156,-0.098
0.152,1.039,0.008
0.285,0.727,-0.035
0.063,1.004,-0.273
-0.086,0.926,-0.051
-0.164,1.188,0.055
0.023,1.344,-0.012
-0.148,1.453,-0.012
-0.031,0.934,-0.133
0.125,0.742,-0.027
0.051,0.941,-0.047
0.129,0.777,0.035
0.063,0.988,0.078
0.422,0.926,-0.012
-0.027,1.027,-0.078
-0.004,1.031,-0.035
-0.059,0.906,-0.043
-0.051,0.965,-0.051
0.012,1,-0.043
-0.008,1.004,-0.047
-0.051,0.996,-0.035
-0.078,1.02,-0.02
-0.039,0.977,-0.078
-0.02,0.863,-0.137
0.059,0.918,-0.148
0.16,1.047,-0.098
-0.02,1.02,-0.012
-0.098,0.785,-0.027
0.113,1.117,0.148
-0.063,0.891,0.141
0.672,1.152,-0.008
0.57,1.238,-0.016
0.109,0.969,0.07
-0.172,0.777,-0.055
-0.145,0.777,-0.148
0.027,0.922,-0.105
0.016,1.027,-0.055
0.047,1.07,-0.031
0.094,1.094,-0.027
0.012,0.883,-0.098
0.004,0.934,-0.09
-0.082,1.008,0.039
-0.086,1.016,0.004
-0.055,0.938,-0.07
0.047,1.008,-0.035
0.023,1.063,0.004
-0.008,0.996,-0.02
0.09,0.953,-0.074
-0.059,0.902,-0.023
-0.051,1.105,0.098
0.031,0.973,-0.047
0,0.926,-0.027
-0.012,0.949,0.008
0.035,0.965,0.043
0.238,1.113,0.07
0.094,1.023,0.117
0.137,1.02,0.074
0.141,1.031,0.098
0.016,0.992,0.137
-0.023,0.918,0.043
-0.012,0.914,0.027
0.043,0.938,0.039
0.055,1.051,0.105
0.09,1.055,0.113
0.059,0.984,0.133
0.063,0.945,0.035
0.07,0.957,0.098
0.086,0.996,0.094
0.09,1.012,0.074
0.117,1.027,0.082
0.117,1.039,0.125
0.105,1.047,0.16
0.125,0.953,0.176
0.133,0.805,0.09
0.16,0.879,0.105
0.168,0.977,0.109
0.113,1.055,0.117
0.074,1.066,0.125
0.09,0.984,0.094
0.082,0.992,0.051
0.137,1.031,0.105
0.148,1.016,0.125
0.074,0.93,0.121
0.031,0.93,0.133
0.051,0.98,0.16
0.117,0.984,0.168
0.164,0.988,0.156
0.152,0.961,0.141
0.094,1.047,0.102
0.027,1.098,0.07
0.039,0.934,0.008
0.012,0.918,-0.012
0.035,0.91,-0.051
0.07,1.063,-0.066
0.129,1.047,-0.063
0.031,0.988,-0.086
-0.027,1.031,-0.07
0.043,0.922,-0.074
0.051,0.898,-0.078
0.137,0.867,-0.129
0.148,0.949,-0.137
0.102,1.125,-0.102
0.227,1.066,-0.141
0.285,1.109,-0.129
0.242,0.887,-0.172
0.113,0.82,-0.188
0.066,0.91,-0.145
0.059,0.965,-0.152
0.051,0.965,-0.141
0.078,0.988,-0.133
0.133,1.023,-0.145
0.172,0.996,-0.117
0.207,0.961,-0.105
0.191,0.957,-0.102
0.18,0.934,-0.102
0.176,0.926,-0.098
0.168,0.949,-0.082
0.145,0.977,-0.082
0.129,0.953,-0.074
0.098,0.953,-0.07
0.117,0.977,-0.055
0.152,1.047,-0.078
0.117,1.125,-0.047
0.133,1.016,-0.035
0.113,0.914,-0.043
0.098,0.91,-0.047
0.051,0.953,0.008
0.023,0.992,0.008
0.02,1,0.02
0.035,0.988,0.012
0.074,0.984,0.012
0.094,0.988,0.023
0.121,1.016,0.039
0.125,1.008,0.035
0.105,0.977,0.031
0.094,0.988,0.031
0.086,1,0.043
0.074,1.008,0.063
0.078,0.992,0.059
0.074,0.992,0.051
0.086,0.984,0.059
0.09,0.992,0.07
0.098,0.988,0.074
0.105,0.988,0.066
0.129,0.98,0.063
0.129,0.984,0.07
0.129,0.98,0.078
0.121,0.992,0.082
0.109,0.98,0.086
0.109,0.984,0.086
0.102,0.988,0.086
0.102,0.988,0.086
0.109,0.984,0.086
0.125,0.977,0.09
0.145,0.984,0.086
0.145,0.977,0.094
0.152,0.973,0.098
0.145,0.984,0.094
0.148,0.969,0.086
0.16,0.977,0.086
0.156,0.973,0.086
0.148,0.977,0.086
0.145,0.973,0.082
0.133,0.965,0.082
0.129,0.973,0.082
0.125,0.984,0.086
0.121,0.977,0.078
0.121,0.98,0.086
0.109,0.984,0.074
0.105,0.984,0.086
0.102,0.977,0.078
0.105,0.98,0.086
0.105,0.984,0.086
0.102,0.98,0.086
0.102,0.977,0.086
0.102,0.98,0.098
0.113,0.988,0.086
0.109,0.984,0.09
0.109,0.984,0.09
0.109,0.984,0.09
0.121,0.98,0.086
0.113,0.984,0.082
0.113,0.992,0.082
0.105,0.988,0.086
0.102,0.98,0.086
0.098,0.98,0.086
0.098,0.988,0.086
0.094,0.996,0.086
0.082,0.996,0.086
0.074,0.98,0.07
0.09,0.98,0.066
0.102,0.98,0.074
0.125,0.984,0.082
0.137,0.984,0.074
0.145,0.992,0.07
0.141,0.988,0.063
0.125,0.965,0.055
0.125,0.973,0.059
0.125,0.98,0.063
0.121,0.977,0.055
0.121,0.98,0.051
0.129,0.984,0.051
0.145,0.98,0.051
0.152,0.98,0.047
0.148,0.98,0.055
0.152,0.98,0.043
0.156,0.977,0.047
0.152,0.977,0.043
0.156,0.973,0.043
0.148,0.977,0.035
0.156,0.992,0.035
0.156,0.973,0.039
0.16,0.969,0.035
0.156,0.977,0.027
0.156,0.977,0.039
0.16,0.98,0.027
0.164,0.965,0.031
0.16,0.973,0.039
0.156,0.969,0.043
0.16,0.973,0.039
0.168,0.969,0.039
0.176,0.977,0.043
0.172,0.977,0.027
0.172,0.969,0.035
0.176,0.973,0.039
0.164,0.98,0.027
0.164,0.973,0.027
0.164,0.969,0.027
0.16,0.965,0.027
0.16,0.977,0.027
0.164,0.977,0.027
0.164,0.969,0.035
0.164,0.965,0.031
0.168,0.977,0.035
0.172,0.977,0.031
0.164,0.977,0.027
0.168,0.977,0.023
0.164,0.969,0.027
0.164,0.969,0.027
0.164,0.977,0.023
0.176,0.977,0.02
0.18,0.977,0.023
0.176,0.973,0.027
0.172,0.969,0.023
0.172,0.977,0.023
0.16,0.98,0.031
0.172,0.969,0.023
0.176,0.969,0.031
0.176,0.965,0.031
0.168,0.977,0.027
0.176,0.977,0.027
0.172,0.973,0.023
0.18,0.973,0.035
0.176,0.969,0.031
0.176,0.969,0.027
0.172,0.977,0.035
0.18,0.973,0.027
0.18,0.973,0.031
0.176,0.973,0.035
0.168,0.977,0.031
0.176,0.973,0.031
0.176,0.973,0.031
0.172,0.973,0.039
0.172,0.973,0.039
0.176,0.977,0.039
0.172,0.969,0.039
0.164,0.977,0.035
0.164,0.969,0.047
0.176,0.969,0.035
0.172,0.969,0.039
0.172,0.98,0.039
0.164,0.973,0.039
0.172,0.973,0.043
0.168,0.977,0.039
0.168,0.969,0.039
0.164,0.977,0.043
0.168,0.98,0.043
0.168,0.969,0.043
0.168,0.969,0.051
0.168,0.973,0.043
0.168,0.977,0.047
0.168,0.969,0.043
0.168,0.969,0.047
0.168,0.973,0.047
0.172,0.973,0.047
0.172,0.977,0.047
0.172,0.969,0.043
0.176,0.969,0.055
0.184,0.969,0.047
0.176,0.973,0.051
0.172,0.969,0.055
0.164,0.973,0.047
0.16,0.977,0.051
0.16,0.977,0.063
0.156,0.977,0.055
0.156,0.969,0.051
0.164,0.973,0.047
0.176,0.969,0.043
0.18,0.973,0.047
0.168,0.977,0.055
0.176,0.977,0.051
0.176,0.969,0.051
0.164,0.977,0.051
0.16,0.973,0.055
0.16,0.969,0.051
0.164,0.973,0.051
0.164,0.973,0.055
0.16,0.973,0.051
0.16,0.969,0.051
0.16,0.973,0.043
0.145,0.98,0.043
0.145,0.98,0.035
0.148,0.977,0.047
0.148,0.969,0.043
0.145,0.969,0.051
0.156,0.977,0.047
0.16,0.977,0.047
0.164,0.969,0.055
0.164,0.969,0.059
0.164,0.973,0.055
0.172,0.961,0.047
0.172,0.961,0.047
0.168,0.965,0.059
0.164,0.973,0.063
0.168,0.973,0.066
0.164,0.965,0.07
0.16,0.969,0.07
0.164,0.965,0.082
0.16,0.969,0.09
0.16,0.984,0.086
0.148,0.977,0.102
0.133,0.977,0.102
0.137,0.973,0.105
0.133,0.988,0.113
0.125,0.973,0.113
0.105,0.984,0.117
0.094,0.977,0.129
0.102,0.988,0.129
0.117,0.973,0.141
0.121,0.98,0.145
0.133,0.969,0.148
0.129,0.965,0.156
0.137,0.973,0.172
0.145,0.977,0.176
0.152,0.965,0.172
0.145,0.969,0.18
0.145,0.969,0.188
0.16,0.969,0.188
0.16,0.969,0.184
0.148,0.965,0.184
0.137,0.973,0.184
0.137,0.965,0.188
0.137,0.957,0.199
0.141,0.957,0.211
0.145,0.965,0.219
0.148,0.965,0.211
0.156,0.941,0.219
0.156,0.961,0.219
0.16,0.957,0.223
0.16,0.961,0.219
0.168,0.957,0.219
0.176,0.945,0.223
0.195,0.949,0.227
0.195,0.949,0.227
0.184,0.941,0.23
0.195,0.934,0.238
0.199,0.949,0.242
0.176,0.953,0.246
0.16,0.945,0.238
0.141,0.941,0.234
0.117,0.957,0.234
0.113,0.961,0.238
0.125,0.965,0.23
0.129,0.973,0.23
0.133,0.957,0.207
0.094,1,0.188
0.086,0.992,0.211
0.113,0.992,0.215
0.09,1,0.199
0.078,1.023,0.184
0.07,1.016,0.156
0.059,1.035,0.121
0.027,1.012,0.09
0.035,0.98,0.051
0.031,0.953,0.027
0.012,0.977,-0.004
-0.027,0.984,-0.02
-0.043,0.957,-0.031
-0.047,0.957,-0.074
-0.07,0.961,-0.063
-0.063,1.027,-0.059
-0.059,1.051,-0.07
-0.055,1.008,-0.082
-0.031,0.961,-0.09
-0.008,0.957,-0.105
0.008,0.961,-0.09
0.031,0.965,-0.082
0.07,0.957,-0.074
0.055,0.957,-0.066
0.004,0.988,-0.059
-0.035,1.004,-0.063
-0.012,0.996,-0.051
0.031,0.996,-0.047
0.043,0.996,-0.043
0.023,0.984,-0.027
-0.004,1,-0.023
0.016,0.992,0
0.027,0.992,0.016
0.043,0.992,0.027
0.035,0.996,0.047
0.023,0.996,0.059
0.027,0.996,0.066
0.023,0.984,0.082
0.055,0.969,0.098
0.063,1.012,0.109
0.039,1.008,0.117
0.016,1,0.102
0.016,0.977,0.094
0.008,0.965,0.102
0.004,0.992,0.109
0.016,1.004,0.117
0.023,0.996,0.121
0.008,0.988,0.156
0.02,0.977,0.168
0.047,0.965,0.168
0.051,0.98,0.184
0.047,0.984,0.207
0.059,0.992,0.215
0.086,0.973,0.211
0.102,0.973,0.211
0.125,0.98,0.227
0.129,0.977,0.223
0.113,0.961,0.195
0.078,0.969,0.164
0.035,0.992,0.164
-0.008,1.051,0.16
0.023,1.023,0.152
0.102,0.965,0.141
0.168,0.945,0.16
0.223,0.957,0.172
0.199,0.988,0.129
0.129,0.988,0.098
0.098,0.977,0.082
0.121,0.973,0.086
0.121,0.977,0.074
0.078,0.977,0.043
0.066,0.984,0.031
0.09,0.98,0.043
0.133,0.988,0.039
0.137,0.988,0.023
0.148,0.992,0.016
0.137,0.973,0.016
0.148,0.984,0.016
0.137,0.984,0.016
0.133,0.984,0.02
0.129,0.988,0.008
0.125,0.988,0.012
0.137,0.984,-0.008
0.133,0.957,-0.016
0.121,0.961,-0.031
0.148,0.977,-0.031
0.16,0.965,-0.035
0.164,0.969,-0.047
0.16,0.965,-0.039
0.148,0.965,-0.047
0.133,0.977,-0.051
0.125,0.973,-0.043
0.129,0.98,-0.039
0.133,0.98,-0.035
0.141,0.969,-0.031
0.148,0.969,-0.039
0.133,0.977,-0.031
0.121,0.984,-0.02
0.109,0.996,-0.02
0.105,0.992,-0.027
0.105,0.984,-0.031
0.098,0.98,-0.031
0.109,0.98,-0.02
0.117,0.992,-0.016
0.117,0.984,-0.02
0.121,0.992,-0.023
0.125,0.984,-0.02
0.129,0.984,-0.016
0.137,0.984,-0.016
0.148,0.969,-0.012
0.145,0.98,-0.023
0.152,0.988,-0.02
0.133,0.969,-0.008
0.125,0.973,-0.016
0.121,0.973,-0.012
0.121,0.973,-0.012
0.133,0.973,-0.008
0.137,0.977,0
0.148,0.977,0.008
0.148,0.977,0.012
0.148,0.988,0.012
0.16,0.98,0.02
0.16,0.977,0.023
0.152,0.98,0.031
0.152,0.98,0.043
0.152,0.98,0.043
0.156,0.984,0.055
0.141,0.98,0.066
0.129,0.984,0.074
0.109,0.98,0.078
0.102,0.98,0.082
0.102,0.988,0.082
0.117,0.984,0.086
0.109,0.988,0.09
0.105,0.992,0.094
0.105,0.996,0.094
0.102,0.984,0.102
0.117,0.969,0.102
0.125,0.973,0.109
0.117,0.984,0.113
0.125,0.98,0.113
0.117,0.977,0.113
0.117,0.977,0.125
0.117,0.98,0.117
0.121,0.98,0.121
0.125,0.977,0.121
0.141,0.969,0.121
0.141,0.973,0.121
0.141,0.973,0.125
0.145,0.988,0.137
0.133,0.996,0.141
0.105,0.992,0.137
0.086,0.988,0.137
0.063,0.988,0.137
0.055,0.98,0.141
0.066,0.977,0.121
0.043,1,0.129
0.016,0.996,0.125
-0.012,0.996,0.117
-0.039,0.996,0.09
-0.07,1.004,0.086
-0.082,1.02,0.09
-0.059,0.996,0.098
-0.098,0.957,0.113
-0.105,0.91,0.102
-0.078,0.871,0.098
0.023,0.848,0.07
0.094,0.852,0.063
0.047,0.902,0.07
0.031,0.922,0.027
0.047,0.82,0.012
-0.043,0.707,-0.008
-0.047,0.754,-0.023
-0.137,0.934,-0.043
-0.051,1.059,0.02
-0.023,0.938,-0.047
-0.02,0.996,-0.109
-0.059,1.113,-0.082
-0.16,1.047,-0.031
-0.121,0.945,-0.051
-0.027,0.934,-0.027
0,0.953,0.004
-0.012,1.008,-0.004
-0.008,1.141,0.012
0.012,1.203,0.055
0.102,1.207,0.082
0.148,1.18,0.063
0.148,1.117,0.082
0.148,1.074,0.086
0.199,1.035,0.086
0.234,1.012,0.086
0.191,1.004,0.09
0.176,1.004,0.105
0.199,1.004,0.113
0.207,0.984,0.109
0.203,0.988,0.102
0.199,0.988,0.105
0.203,1.012,0.113
0.219,0.988,0.102
0.219,0.98,0.094
0.227,0.965,0.098
0.234,0.961,0.105
0.25,0.941,0.113
0.246,0.938,0.105
0.242,0.934,0.113
0.227,0.934,0.102
0.23,0.949,0.109
0.262,0.961,0.113
0.281,0.961,0.117
0.285,0.934,0.117
0.27,0.93,0.117
0.266,0.941,0.121
0.273,0.934,0.117
0.277,0.938,0.117
0.285,0.949,0.117
0.285,0.938,0.109
0.293,0.949,0.113
0.301,0.945,0.129
0.285,0.938,0.121
0.266,0.941,0.117
0.27,0.93,0.109
0.297,0.93,0.109
0.313,0.934,0.109
0.316,0.938,0.105
0.316,0.941,0.109
0.301,0.941,0.117
0.285,0.93,0.117
0.281,0.934,0.113
0.281,0.934,0.113
0.273,0.941,0.113
0.27,0.934,0.113
0.273,0.941,0.113
0.273,0.949,0.109
0.27,0.938,0.105
0.273,0.938,0.105
0.27,0.938,0.105
0.266,0.938,0.105
0.266,0.945,0.109
0.266,0.938,0.102
0.266,0.938,0.105
0.266,0.949,0.102
0.27,0.945,0.102
0.266,0.945,0.109
0.266,0.934,0.102
0.27,0.941,0.113
0.27,0.941,0.109
0.266,0.949,0.109
0.266,0.941,0.109
0.266,0.941,0.109
0.281,0.941,0.102
0.281,0.938,0.098
0.273,0.945,0.105
0.277,0.945,0.105
0.273,0.941,0.105
0.266,0.938,0.109
0.27,0.949,0.105
0.27,0.945,0.102
0.266,0.945,0.102
0.273,0.938,0.105
0.27,0.938,0.109
0.273,0.938,0.113
0.277,0.934,0.105
0.27,0.941,0.098
0.27,0.938,0.105
0.266,0.941,0.105
0.27,0.938,0.105
0.266,0.941,0.105
0.266,0.938,0.105
0.266,0.945,0.105
0.266,0.941,0.109
0.273,0.949,0.109
0.266,0.949,0.109
0.266,0.941,0.102
0.266,0.945,0.113
0.273,0.938,0.105
0.266,0.938,0.105
0.266,0.934,0.105
0.254,0.941,0.109
0.266,0.945,0.117
0.266,0.945,0.113
0.266,0.945,0.105
0.266,0.945,0.113
0.262,0.945,0.109
0.27,0.934,0.113
0.27,0.941,0.113
0.266,0.961,0.109
0.266,0.945,0.113
0.262,0.941,0.113
0.266,0.945,0.113
0.266,0.945,0.117
0.266,0.945,0.113
0.266,0.938,0.109
0.266,0.945,0.113
0.266,0.938,0.113
0.266,0.938,0.113
0.262,0.945,0.109
0.266,0.945,0.105
0.266,0.945,0.105
0.266,0.945,0.105
0.266,0.945,0.109
0.266,0.957,0.109
0.27,0.945,0.109
0.27,0.945,0.102
0.266,0.941,0.105
0.266,0.941,0.109
0.262,0.938,0.105
0.27,0.938,0.109
0.266,0.945,0.105
0.27,0.941,0.109
0.266,0.934,0.109
0.266,0.945,0.105
0.266,0.945,0.105
0.27,0.945,0.117
0.266,0.938,0.109
0.273,0.938,0.105
0.27,0.949,0.113
0.266,0.941,0.109
0.266,0.934,0.113
0.266,0.941,0.113
0.266,0.945,0.109
0.27,0.949,0.113
0.273,0.945,0.105
0.27,0.938,0.105
0.266,0.938,0.105
0.273,0.938,0.105
0.281,0.941,0.109
0.27,0.941,0.105
0.27,0.938,0.109
0.27,0.941,0.105
0.273,0.934,0.113
0.277,0.949,0.109
0.27,0.945,0.109
0.266,0.938,0.113
0.27,0.938,0.109
0.277,0.941,0.102
0.262,0.945,0.105
0.258,0.949,0.102
0.254,0.938,0.102
0.258,0.945,0.098
0.258,0.938,0.094
0.281,0.938,0.098
0.281,0.941,0.098
0.277,0.934,0.102
0.281,0.938,0.098
0.285,0.934,0.102
0.277,0.953,0.102
0.273,0.941,0.109
0.277,0.938,0.105
0.27,0.934,0.117
0.266,0.938,0.117
0.277,0.941,0.121
0.273,0.934,0.133
0.273,0.934,0.129
0.273,0.934,0.133
0.281,0.93,0.137
0.277,0.914,0.137
0.313,0.934,0.152
0.313,0.93,0.148
0.313,0.918,0.145
0.285,0.91,0.164
0.262,0.938,0.184
0.25,0.93,0.199
0.223,0.938,0.223
0.234,0.91,0.227
0.297,0.879,0.234
0.301,0.891,0.258
0.305,0.91,0.266
0.332,0.906,0.27
0.328,0.891,0.254
0.328,0.898,0.254
0.309,0.914,0.266
0.313,0.926,0.273
0.316,0.91,0.273
0.32,0.91,0.285
0.32,0.922,0.285
0.316,0.945,0.266
0.285,0.934,0.254
0.254,0.941,0.242
0.266,0.973,0.227
0.266,0.98,0.215
0.309,0.977,0.223
0.301,0.977,0.168
0.328,1.031,0.148
0.316,1.012,0.129
0.223,0.973,0.102
0.148,0.957,0.082
0.043,0.91,-0.008
-0.035,0.922,-0.07
-0.051,0.914,-0.129
-0.031,0.883,-0.18
0.059,0.859,-0.199
0.102,0.922,-0.199
0.07,0.957,-0.188
0.063,0.961,-0.152
0.055,0.926,-0.125
0.043,0.988,-0.086
0.031,1.02,-0.055
0.035,1,-0.063
0.027,0.988,-0.078
0.035,0.961,-0.082
0.039,0.961,-0.086
0.066,0.965,-0.059
0.109,0.996,-0.02
0.109,1.008,0.016
0.125,1.004,0.043
0.129,1.012,0.063
0.156,0.984,0.074
0.172,0.973,0.082
0.176,0.984,0.098
0.172,0.961,0.094
0.172,0.957,0.117
0.164,0.961,0.137
0.18,0.953,0.164
0.18,0.957,0.184
0.188,0.953,0.195
0.195,0.945,0.215
0.199,0.945,0.234
0.199,0.945,0.25
0.207,0.93,0.258
0.199,0.93,0.281
0.203,0.945,0.289
0.219,0.926,0.285
0.219,0.918,0.297
0.203,0.922,0.34
0.207,0.918,0.34
0.211,0.914,0.348
0.203,0.918,0.355
0.207,0.926,0.359
0.203,0.922,0.367
0.195,0.91,0.371
0.18,0.918,0.375
0.184,0.926,0.379
0.203,0.918,0.379
0.176,0.918,0.359
0.164,0.906,0.352
0.18,0.91,0.355
0.195,0.891,0.367
0.211,0.906,0.387
0.207,0.918,0.398
0.207,0.898,0.367
0.203,0.891,0.355
0.199,0.883,0.34
0.207,0.898,0.34
0.211,0.922,0.34
0.215,0.922,0.336
0.211,0.902,0.32
0.227,0.906,0.309
0.238,0.898,0.313
0.246,0.902,0.316
0.238,0.914,0.313
0.238,0.918,0.309
0.238,0.91,0.297
0.234,0.922,0.301
0.227,0.922,0.281
0.234,0.906,0.273
0.262,0.914,0.273
0.254,0.926,0.277
0.254,0.922,0.262
0.25,0.922,0.258
0.242,0.93,0.262
0.238,0.926,0.262
0.234,0.922,0.258
0.242,0.922,0.258
0.238,0.926,0.258
0.238,0.91,0.254
0.258,0.914,0.25
0.258,0.906,0.246
0.277,0.918,0.25
0.273,0.926,0.246
0.266,0.918,0.254
0.266,0.922,0.266
0.258,0.918,0.27
0.262,0.91,0.277
0.262,0.922,0.273
0.262,0.926,0.27
0.262,0.906,0.246
0.25,0.914,0.227
0.246,0.926,0.227
0.246,0.93,0.23
0.238,0.93,0.246
0.234,0.934,0.254
0.242,0.922,0.242
0.242,0.949,0.266
0.246,0.945,0.266
0.25,0.934,0.262
0.234,0.93,0.242
0.23,0.938,0.242
0.203,0.938,0.238
0.211,0.934,0.238
0.23,0.941,0.223
0.25,0.961,0.223
0.254,0.945,0.195
0.242,0.949,0.199
0.234,0.941,0.219
0.211,0.922,0.227
0.195,0.918,0.188
0.215,0.926,0.168
0.234,0.957,0.156
0.246,0.945,0.156
0.246,0.93,0.141
0.262,0.934,0.148
0.277,0.934,0.172
0.27,0.934,0.188
0.273,0.91,0.18
0.262,0.926,0.16
0.285,0.934,0.145
0.293,0.906,0.137
0.293,0.926,0.145
0.305,0.953,0.145
0.305,0.934,0.148
0.281,0.93,0.137
0.277,0.918,0.148
0.285,0.934,0.16
0.281,0.93,0.168
0.293,0.926,0.16
0.301,0.93,0.168
0.277,0.934,0.184
0.242,0.941,0.199
0.254,0.938,0.191
0.246,0.938,0.18
0.254,0.93,0.188
0.254,0.926,0.188
0.246,0.926,0.188
0.238,0.938,0.195
0.246,0.938,0.191
0.254,0.945,0.191
0.246,0.934,0.199
0.242,0.941,0.211
0.234,0.945,0.219
0.234,0.938,0.223
0.223,0.922,0.219
0.23,0.926,0.23
0.234,0.945,0.25
0.238,0.934,0.25
0.234,0.93,0.227
0.238,0.934,0.23
0.242,0.941,0.227
0.234,0.934,0.227
0.219,0.926,0.223
0.227,0.93,0.219
0.23,0.953,0.227
0.23,0.934,0.227
0.234,0.93,0.223
0.246,0.941,0.23
0.254,0.934,0.227
0.234,0.926,0.223
0.23,0.922,0.219
0.238,0.953,0.23
0.238,0.938,0.223
0.23,0.914,0.219
0.242,0.926,0.223
0.262,0.945,0.223
0.258,0.941,0.223
0.238,0.918,0.207
0.25,0.93,0.219
0.266,0.953,0.223
0.254,0.93,0.207
0.254,0.918,0.203
0.258,0.93,0.215
0.254,0.941,0.219
0.246,0.938,0.215
0.234,0.922,0.219
0.25,0.926,0.215
0.266,0.938,0.223
0.254,0.934,0.215
0.25,0.918,0.207
0.254,0.93,0.211
0.262,0.934,0.219
0.258,0.93,0.215
0.254,0.93,0.215
0.254,0.945,0.219
0.242,0.934,0.219
0.246,0.934,0.219
0.258,0.93,0.219
0.289,0.93,0.215
0.258,0.926,0.223
0.238,0.934,0.223
0.23,0.949,0.215
0.258,0.934,0.219
0.285,0.902,0.199
0.27,0.891,0.184
0.238,0.93,0.191
0.23,0.957,0.219
0.227,0.965,0.23
0.262,0.926,0.215
0.273,0.898,0.199
0.266,0.895,0.203
0.262,0.93,0.223
0.258,0.957,0.242
0.27,0.945,0.242
0.293,0.902,0.215
0.301,0.875,0.219
0.285,0.91,0.227
0.266,0.938,0.242
0.262,0.965,0.258
0.27,0.934,0.246
0.273,0.898,0.238
0.273,0.895,0.238
0.262,0.91,0.254
0.258,0.934,0.258
0.266,0.938,0.262
0.281,0.91,0.25
0.289,0.902,0.242
0.273,0.906,0.238
0.273,0.922,0.25
0.266,0.93,0.262
0.281,0.914,0.258
0.289,0.898,0.254
0.289,0.898,0.258
0.277,0.914,0.27
0.277,0.922,0.266
0.27,0.926,0.262
0.281,0.906,0.242
0.281,0.898,0.23
0.281,0.91,0.238
0.289,0.934,0.242
0.285,0.926,0.25
0.289,0.926,0.25
0.297,0.906,0.242
0.301,0.898,0.234
0.305,0.902,0.227
0.301,0.906,0.238
0.297,0.922,0.242
0.301,0.914,0.238
0.305,0.91,0.23
0.305,0.902,0.223
0.305,0.914,0.223
0.301,0.914,0.227
0.301,0.918,0.223
0.309,0.918,0.219
0.313,0.918,0.211
0.309,0.91,0.203
0.313,0.918,0.199
0.313,0.918,0.199
0.313,0.918,0.195
0.313,0.914,0.191
0.313,0.914,0.188
0.328,0.906,0.176
0.316,0.918,0.184
0.313,0.914,0.184
0.316,0.918,0.176
0.316,0.914,0.176
0.328,0.918,0.176
0.328,0.918,0.168
0.324,0.918,0.164
0.324,0.926,0.168
0.324,0.918,0.164
0.328,0.926,0.172
0.332,0.922,0.156
0.316,0.922,0.16
0.316,0.922,0.168
0.324,0.918,0.16
0.328,0.918,0.16
0.332,0.914,0.152
0.332,0.922,0.152
0.328,0.91,0.141
0.332,0.922,0.141
0.336,0.926,0.137
0.332,0.918,0.133
0.336,0.918,0.133
0.344,0.922,0.125
0.336,0.922,0.117
0.336,0.91,0.117
0.336,0.922,0.117
0.34,0.922,0.109
0.34,0.918,0.109
0.336,0.922,0.109
0.336,0.918,0.098
0.34,0.918,0.098
0.348,0.914,0.09
0.344,0.918,0.09
0.363,0.898,0.086
0.363,0.918,0.105
0.359,0.914,0.102
0.336,0.918,0.086
0.305,0.918,0.086
0.328,0.887,0.09
0.355,0.895,0.113
0.355,0.895,0.137
0.371,0.906,0.156
0.367,0.914,0.16
0.363,0.914,0.164
0.359,0.887,0.156
0.367,0.891,0.16
0.371,0.91,0.18
0.371,0.922,0.188
0.363,0.926,0.188
0.34,0.906,0.184
0.34,0.898,0.176
0.34,0.898,0.164
0.344,0.91,0.172
0.352,0.922,0.172
0.375,0.914,0.168
0.359,0.91,0.176
0.348,0.898,0.168
0.348,0.902,0.18
0.34,0.902,0.188
0.336,0.914,0.191
0.316,0.922,0.199
0.316,0.914,0.191
0.324,0.91,0.203
0.32,0.91,0.199
0.316,0.918,0.199
0.305,0.922,0.199
0.313,0.906,0.199
0.316,0.914,0.207
0.32,0.898,0.215
0.328,0.906,0.223
0.332,0.898,0.215
0.328,0.906,0.215
0.336,0.898,0.215
0.336,0.898,0.219
0.344,0.906,0.203
0.359,0.887,0.203
0.348,0.902,0.215
0.355,0.914,0.211
0.352,0.906,0.219
0.363,0.887,0.215
0.363,0.918,0.234
0.359,0.906,0.242
0.367,0.895,0.25
0.344,0.895,0.262
0.313,0.91,0.262
0.293,0.922,0.242
0.273,0.926,0.219
0.266,0.93,0.203
0.273,0.957,0.211
0.277,0.957,0.203
0.262,0.945,0.18
0.25,0.941,0.164
0.246,0.949,0.16
0.242,0.938,0.16
0.246,0.938,0.145
0.25,0.941,0.129
0.254,0.953,0.113
0.238,0.953,0.094
0.207,0.957,0.07
0.195,0.957,0.035
0.191,0.953,0.02
0.195,0.945,0
0.195,0.953,0
0.184,0.957,0.004
0.176,0.957,0.012
0.172,0.941,0.012
0.168,0.957,0.008
0.172,0.977,0.02
0.18,0.969,0.02
0.188,0.965,0.02
0.176,0.969,0.023
0.18,0.965,0.047
0.18,0.973,0.051
0.176,0.953,0.039
0.172,0.965,0.047
0.168,0.965,0.043
0.176,0.957,0.031
0.176,0.969,0.035
0.188,0.969,0.047
0.207,0.988,0.078
0.191,0.977,0.059
0.207,1.004,0.043
0.164,1.035,0.063
0.184,0.973,0.086
0.289,0.926,0.09
0.359,0.91,0.133
0.348,0.93,0.152
0.352,1.004,0.156
0.219,1.117,0.125
0.086,1.129,0.109
-0.039,1.18,0.055
-0.113,1.25,0.09
-0.109,1.281,0.125
-0.223,1.219,0.105
-0.23,1.168,0.051
-0.207,1.172,0.074
-0.172,1.109,0.051
-0.152,1.008,0.023
-0.164,1.07,0.035
-0.195,1.063,0.008
-0.188,0.98,-0.012
-0.188,0.883,-0.031
-0.129,0.824,-0.016
-0.078,0.77,0.004
-0.059,0.723,0.012
-0.09,0.703,0.035
-0.145,0.723,0.047
-0.152,0.742,0.094
-0.188,0.77,0.156
-0.203,0.863,0.164
-0.16,0.918,0.172
-0.094,0.973,0.188
-0.082,1.008,0.203
-0.094,1.012,0.203
-0.082,0.961,0.168
-0.07,0.945,0.156
-0.023,0.961,0.18
0.016,0.977,0.184
0,0.98,0.168
-0.043,1.004,0.129
-0.121,1.066,0.082
-0.031,1.086,0.129
-0.098,0.98,0.086
-0.242,0.957,0.047
-0.184,0.953,0.031
-0.066,0.922,-0.02
-0.039,0.957,-0.012
-0.129,0.969,-0.012
-0.207,0.973,-0.012
-0.219,0.988,-0.004
-0.254,0.969,-0.008
-0.25,0.973,-0.004
-0.258,0.98,-0.008
-0.273,0.961,-0.016
-0.285,0.977,-0.008
-0.293,0.965,0.012
-0.313,0.961,0.008
-0.313,0.965,0.004
-0.305,0.965,0.008
-0.301,0.969,0.016
-0.285,0.957,0.016
-0.293,0.941,0.004
-0.305,0.941,0.012
-0.309,0.961,0.02
-0.313,0.957,0.012
-0.313,0.953,0.012
-0.305,0.957,0.012
-0.305,0.969,0.004
-0.305,0.965,0.004
-0.289,0.965,0.008
-0.285,0.953,0
-0.289,0.953,0.008
-0.289,0.965,0
-0.293,0.957,0
-0.305,0.965,0.004
-0.301,0.961,0.012
-0.285,0.957,0.012
-0.285,0.957,-0.004
-0.293,0.969,0.008
-0.293,0.977,0.008
-0.309,0.961,0.004
-0.316,0.961,0
-0.277,0.973,0
-0.254,0.957,-0.008
-0.254,0.957,-0.012
-0.266,0.949,-0.012
-0.266,0.973,-0.012
-0.266,0.969,-0.008
-0.277,0.965,-0.012
-0.281,0.977,-0.016
-0.27,0.969,-0.012
-0.258,0.961,-0.012
-0.246,0.969,-0.012
-0.25,0.98,-0.012
-0.25,0.98,-0.004
-0.246,0.969,-0.008
-0.223,0.977,-0.016
-0.207,0.98,-0.012
-0.203,0.98,-0.012
-0.207,0.969,-0.008
-0.188,0.969,-0.004
-0.184,0.973,-0.012
-0.18,0.969,-0.008
-0.172,0.961,-0.004
-0.145,0.98,0
-0.137,0.988,0
-0.133,0.992,0.004
-0.113,0.977,0.008
-0.102,0.973,0.016
-0.113,0.984,0.02
-0.117,0.996,0.02
-0.098,1,0.02
-0.074,1.008,0.039
-0.078,0.992,0.043
-0.066,0.996,0.043
-0.051,1.008,0.063
-0.047,1.004,0.078
-0.012,0.973,0.082
0.027,0.984,0.086
0.07,0.988,0.109
0.09,0.984,0.129
0.094,0.992,0.145
0.086,1.012,0.156
0.098,0.996,0.129
0.133,0.992,0.121
0.172,0.977,0.117
0.168,0.977,0.121
0.18,0.988,0.121
0.199,0.953,0.113
0.219,0.98,0.109
0.203,0.973,0.121
0.176,0.98,0.125
0.18,0.992,0.133
0.168,1,0.105
0.125,1.012,0.082
0.105,0.977,0.09
0.109,0.953,0.098
0.125,0.957,0.066
0.156,0.977,0.043
0.227,0.988,0.023
0.242,0.992,0.016
0.23,0.965,0.023
0.234,0.941,0.035
0.207,0.949,0.016
0.195,0.953,0.016
0.195,0.973,0.016
0.156,0.98,0.027
0.141,0.973,0.027
0.121,0.949,0.02
0.121,0.965,0
0.129,0.965,-0.008
0.141,0.969,-0.004
0.16,0.988,-0.004
0.195,0.973,-0.012
0.219,0.992,-0.016
0.215,0.98,-0.02
0.203,0.984,-0.031
0.195,0.984,-0.027
0.184,0.949,-0.016
0.188,0.984,-0.016
0.195,0.992,-0.02
0.223,0.98,-0.043
0.234,0.969,-0.035
0.219,0.945,-0.039
0.195,0.957,-0.043
0.176,0.965,-0.035
0.203,0.973,-0.02
0.215,0.957,-0.016
0.188,0.957,-0.016
0.184,0.953,-0.02
0.176,0.965,-0.016
0.16,0.953,-0.027
0.184,0.953,-0.027
0.184,0.957,-0.031
0.168,0.953,-0.031
0.156,0.98,-0.012
0.156,1,-0.012
0.164,0.98,-0.008
0.16,0.965,-0.016
0.172,0.961,-0.012
0.211,0.965,0.016
0.191,0.98,0.02
0.164,0.977,0.031
0.148,0.965,0.02
0.156,0.98,0.023
0.137,0.98,0.031
0.121,0.98,0.047
0.109,1.008,0.047
0.125,0.992,0.047
0.148,0.973,0.043
0.16,0.984,0.047
0.148,0.98,0.051
0.168,0.984,0.039
0.105,0.988,0.059
0.125,0.977,0.051
0.121,0.98,0.051
0.129,0.969,0.031
0.156,0.969,0.035
0.121,1,0.074
0.203,0.973,0.02
0.129,0.988,0.07
0.074,0.973,0.078
0.184,0.973,0.016
0.105,0.992,0.078
0.129,0.98,0.09
0.305,1.008,0.23
0.266,1.129,-0.203
0.012,0.934,0.125
-0.195,1.336,0.328
0.379,0.988,0.156
0.273,1.051,0.195
0.195,1.004,0
0.012,0.742,-0.258
0.32,1.113,0.242
0.066,1.023,0.02
0.121,0.758,-0.09
0.203,0.844,-0.102
0.176,1.176,0.16
0.219,1.012,0.051
0.176,0.996,0.043
0.152,0.977,0.059
0.148,0.965,0.035
0.066,0.902,-0.063
0.215,0.996,0.027
0.184,0.969,0.031
0.121,0.984,0.074
0.137,0.984,0.023
0.129,0.953,0.023
0.113,0.949,0.027
0.125,0.996,0.051
0.117,0.996,0.059
0.117,1.004,0.055
0.148,0.973,0.039
0.148,0.961,0.023
0.145,0.992,0.063
0.152,0.98,0.059
0.176,0.953,0.004
0.152,1.008,0.09
0.133,0.984,0.074
0.145,0.988,0.07
0.109,0.973,0.07
0.125,0.957,0.051
0.176,0.984,0.039
0.145,1,0.063
0.117,0.996,0.07
0.102,0.961,0.055
0.148,0.973,0.063
0.195,0.988,0.055
0.164,0.988,0.09
0.164,0.98,0.055
0.145,0.977,0.07
0.102,0.965,0.059
0.148,0.953,0.031
0.121,0.992,0.09
0.188,0.965,0.059
0.156,0.957,0.07
0.191,0.969,0.047
0.195,0.973,0.051
0.16,0.98,0.066
0.105,0.977,0.059
0.121,0.977,0.055
0.172,0.996,0.066
0.152,0.992,0.07
0.137,0.973,0.055
0.125,1.008,0.086
0.156,0.953,0.051
0.164,0.973,0.074
0.125,0.859,0.012
0.152,0.984,0.082
0.184,0.996,0.066
0.148,0.977,0.051
0.086,0.969,0.047
0.09,0.969,0.07
0.109,0.965,0.082
0.109,0.996,0.09
0.105,1.004,0.105
0.121,0.984,0.109
0.113,0.988,0.105
0.102,0.98,0.105
0.125,0.984,0.109
0.121,0.984,0.113
0.117,0.98,0.109
0.086,0.973,0.109
0.094,0.988,0.113
0.098,0.977,0.105
0.117,0.973,0.109
0.125,0.984,0.109
0.121,0.973,0.113
0.125,0.973,0.109
0.113,0.977,0.109
0.117,0.98,0.117
0.117,0.98,0.117
0.109,0.988,0.117
0.141,0.988,0.121
0.137,0.984,0.121
0.129,0.992,0.129
0.117,0.984,0.113
0.129,0.977,0.09
0.141,0.98,0.082
0.133,0.977,0.051
0.129,0.969,0.016
0.121,0.957,0.02
0.125,0.965,0.023
0.117,0.984,0.023
0.133,0.98,0.023
0.109,0.969,0.027
0.066,1.016,0.031
0.145,1.066,0.078
0.152,0.984,0.047
0.184,0.996,0.055
0.172,0.949,0.035
0.148,0.938,0.012
0.086,0.992,0.039
0.078,0.957,0.016
0.133,1.016,0.07
0.16,1,0.074
0.152,0.969,0.051
0.156,0.957,0.063
0.16,0.973,0.078
0.129,0.988,0.07
0.129,0.973,0.07
0.117,0.984,0.063
0.129,0.965,0.055
0.109,1.004,0.078
0.105,0.965,0.047
0.121,0.977,0.055
0.145,0.973,0.066
0.137,0.98,0.063
0.129,0.984,0.051
0.125,0.984,0.051
0.109,0.992,0.074
0.094,0.988,0.059
0.09,0.984,0.066
0.09,0.984,0.063
0.086,0.992,0.059
0.105,1,0.059
0.094,0.996,0.07
0.117,0.988,0.07
0.152,0.988,0.078
0.172,0.98,0.09
0.164,0.977,0.086
0.133,0.945,0.063
0.113,0.992,0.098
0.082,0.98,0.09
0.129,0.969,0.105
0.172,0.98,0.102
0.148,0.938,0.055
0.164,0.98,0.113
0.207,0.906,0.078
0.262,1.055,0.148
0.293,0.906,0.016
0.238,1.004,0.063
0.219,0.953,0.004
0.203,1.027,0.07
0.23,0.922,-0.012
0.219,0.992,0.023
0.227,0.984,0.004
0.199,0.926,-0.066
0.246,0.84,-0.105
0.176,1.207,0.051
0.195,0.965,-0.055
0.195,0.965,-0.027
0.203,0.961,-0.07
0.242,0.957,0.023
0.191,0.957,-0.023
0.195,0.992,0.016
0.113,0.953,-0.004
0.113,0.875,0.008
0.102,0.953,0.039
0.215,1.07,0.086
0.129,1.031,0.063
0.184,0.984,0.039
0.172,1.016,0.117
0.207,0.969,0.055
0.191,0.996,0.035
0.148,0.949,0.023
0.16,0.938,0.008
0.211,0.98,0.047
0.238,0.973,0.043
0.184,0.961,0.012
0.113,0.945,0.016
-0.07,0.973,0.027
0.121,1.027,0.02
0.051,1.074,0.109
0.137,0.949,-0.004
0.137,0.938,0.063
0.105,1,0.035
0.121,0.988,0.086
0.207,0.941,0.051
0.215,1.027,0.082
0.148,0.875,0.055
0.156,0.926,0.027
0.113,1.027,0.082
0.18,0.816,-0.074
0.133,0.957,0.051
0.145,0.953,0.105
0.164,0.676,0.031
0.063,1.266,0.438
0.02,0.926,0.25
-0.273,1.609,0.387
-0.035,0.746,0.031
0.059,0.984,0.063
0.129,1.063,0.105
0.168,1.105,0.145
0.121,0.961,0.102
0.156,0.867,0.027
0.055,0.973,0.113
0.105,1,0.109
0.113,0.984,0.109
0.082,0.957,0.094
0.145,0.848,-0.051
0.113,1.031,0.145
0.117,0.996,0.105
0.121,0.984,0.09
0.137,0.992,0.109
0.145,0.945,0.09
0.102,0.98,0.102
0.074,0.973,0.141
0.121,0.961,0.09
0.152,1.012,0.117
0.129,0.977,0.105
0.066,0.945,0.117
0.082,0.969,0.098
0.121,1,0.105
0.113,0.969,0.133
0.129,0.953,0.078
0.148,1.004,0.102
0.145,1.004,0.109
0.156,0.988,0.086
0.105,0.961,0.113
0.145,0.992,0.09
0.133,0.973,0.094
0.094,0.953,0.09
0.074,0.961,0.09
0.074,0.965,0.109
0.129,1.004,0.113
0.141,1.012,0.094
0.141,0.984,0.102
0.211,0.957,0.09
0.117,0.984,0.07
0.039,0.98,0.086
0.063,0.977,0.082
0.086,0.977,0.09
0.145,0.984,0.098
0.129,0.984,0.094
0.168,0.969,0.09
0.121,0.996,0.117
0.012,1.012,0.137
0.027,0.992,0.086
0.07,0.941,0.07
0.051,0.965,0.117
0.145,1.008,0.082
0.102,0.988,0.105
0.082,0.969,0.094
0.105,0.984,0.078
0.047,1.004,0.102
0.102,1.004,0.09
0.059,0.984,0.094
0.121,0.98,0.082
0.133,0.996,0.098
0.082,0.977,0.105
0.063,0.98,0.09
0.066,0.984,0.102
0.09,0.992,0.094
0.086,1,0.086
0.066,0.988,0.082
0.105,0.988,0.082
0.102,0.973,0.078
0.094,0.973,0.082
0.086,0.977,0.086
0.109,0.98,0.086
0.121,0.969,0.055
0.133,0.973,0.059
0.133,0.996,0.051
0.164,1.004,0.047
0.148,0.977,0.039
0.133,0.965,0.051
0.133,0.977,0.043
0.113,0.992,0.051
0.117,0.977,0.047
0.152,0.965,0.039
0.148,0.988,0.043
0.152,0.961,0.098
0.145,0.957,0.098
0.156,1.004,0.078
0.102,1.016,0.078
0.051,0.98,0.047
0.027,0.988,0.023
0.109,0.988,0.035
0.086,0.992,0.047
0.09,0.984,0.07
0.117,0.969,0.066
0.109,0.988,0.047
0.098,1,0.051
0.105,1.004,0.016
0.066,1.008,-0.012
0.078,0.957,-0.039
0.063,0.938,-0.031
0.129,0.992,-0.031
0.168,1.008,-0.02
0.18,1.02,-0.047
0.164,0.992,-0.059
0.105,0.961,-0.07
0.094,0.953,-0.07
0.105,0.945,-0.055
0.145,0.91,-0.078
0.152,0.914,-0.082
0.152,0.926,-0.074
0.16,0.922,-0.082
0.141,0.945,-0.066
0.133,1.059,-0.008
0.09,1.156,0.023
0.188,1.039,0.051
0.125,0.957,0.07
-0.012,0.957,0.156
-0.082,0.973,0.188
-0.059,1.039,0.176
-0.047,1.078,0.227
-0.031,1.027,0.23
0.02,0.965,0.227
0.059,0.938,0.219
0.09,0.926,0.191
0.125,0.949,0.184
0.09,0.992,0.215
0.055,0.988,0.227
0.047,0.984,0.195
0.051,0.992,0.16
0.027,0.977,0.172
0.016,0.996,0.168
0.008,1,0.145
0.035,0.984,0.117
0.066,1,0.094
0.105,0.996,0.109
0.129,1.004,0.152
0.07,1.031,0.176
-0.02,0.977,0.105
-0.047,0.945,0.07
0.008,0.973,0.082
0.059,0.996,0.086
0.063,0.973,0.078
0.094,0.965,0.07
0.109,0.98,0.078
0.121,0.969,0.07
0.125,0.98,0.047
0.125,0.988,0.055
0.094,0.969,0.055
0.105,0.969,0.051
0.125,0.996,0.055
0.129,0.988,0.043
0.113,0.98,0.043
0.129,0.977,0.043
0.141,0.988,0.051
0.125,0.98,0.043
0.113,0.98,0.051
0.113,0.984,0.051
0.121,0.977,0.055
0.133,0.977,0.055
0.121,0.98,0.043
0.098,0.988,0.063
0.109,0.992,0.047
0.113,0.992,0.043
0.098,0.977,0.051
0.109,0.996,0.047
0.109,0.988,0.051
0.105,0.977,0.055
0.098,0.973,0.043
0.098,0.984,0.051
0.113,0.984,0.059
0.098,0.98,0.055
0.082,0.988,0.051
0.105,0.98,0.047
0.098,0.984,0.047
0.09,0.977,0.063
0.09,0.984,0.047
0.094,0.988,0.047
0.082,0.984,0.047
0.102,0.984,0.043
0.102,0.996,0.047
0.094,0.988,0.051
0.094,0.984,0.051
0.098,0.984,0.051
0.098,0.988,0.055
0.109,0.984,0.051
0.094,0.984,0.063
0.086,0.977,0.055
0.109,0.98,0.059
0.117,0.984,0.063
0.098,0.98,0.063
0.082,0.984,0.059
0.109,0.988,0.055
0.098,0.988,0.07
0.094,0.984,0.07
0.094,0.996,0.066
0.109,0.992,0.066
0.113,0.984,0.066
0.105,0.973,0.07
0.125,0.98,0.07
0.121,0.988,0.063
0.109,0.984,0.07
0.09,0.98,0.074
0.09,0.992,0.078
0.094,0.98,0.074
0.105,0.973,0.074
0.125,0.98,0.082
0.109,0.98,0.07
0.102,0.988,0.086
0.109,0.977,0.07
0.105,0.992,0.082
0.121,0.984,0.078
0.137,0.984,0.074
0.109,0.977,0.074
0.105,0.988,0.086
0.121,0.984,0.082
0.113,0.98,0.082
0.117,0.984,0.086
0.105,0.98,0.09
0.129,0.977,0.086
0.133,0.98,0.078
0.121,0.992,0.09
0.113,0.988,0.086
0.121,0.98,0.098
0.109,0.969,0.074
0.125,0.992,0.074
0.121,0.992,0.082
0.098,0.984,0.086
0.098,0.98,0.086
0.113,0.988,0.082
0.117,0.988,0.09
0.121,0.98,0.09
0.105,0.973,0.086
0.117,0.977,0.082
0.117,0.988,0.078
0.09,0.98,0.09
0.105,0.969,0.082
0.125,0.988,0.07
0.109,0.984,0.086
0.09,0.984,0.086
0.105,0.996,0.09
0.113,0.973,0.07
0.094,0.988,0.082
0.082,0.977,0.082
0.102,0.984,0.086
0.105,0.977,0.074
0.105,0.984,0.082
0.098,0.988,0.082
0.102,0.973,0.086
0.102,0.984,0.082
0.098,0.984,0.082
0.094,0.984,0.086
0.09,0.98,0.086
0.098,0.984,0.074
0.098,0.984,0.082
0.094,0.996,0.086
0.09,0.98,0.078
0.082,0.984,0.086
0.082,0.988,0.086
0.09,0.984,0.086
0.09,0.988,0.086
0.09,0.984,0.082
0.094,0.984,0.082
0.09,0.984,0.082
0.09,0.984,0.086
0.09,0.988,0.09
0.09,0.973,0.082
0.094,0.988,0.082
0.09,0.984,0.086
0.082,0.992,0.086
0.086,0.992,0.082
0.09,0.984,0.078
0.09,0.984,0.082
0.074,0.992,0.086
0.086,0.988,0.082
0.086,0.984,0.086
0.09,0.984,0.086
0.098,0.984,0.086
0.09,0.984,0.086
0.094,0.98,0.086
0.098,0.98,0.086
0.102,0.984,0.09
0.082,0.984,0.09
0.102,0.98,0.086
0.113,0.988,0.086
0.121,0.988,0.094
0.098,0.988,0.086
0.105,0.98,0.09
0.098,0.961,0.074
0.07,0.977,0.09
0.074,0.992,0.086
0.105,0.992,0.086
0.125,0.98,0.082
0.125,0.98,0.086
0.105,0.988,0.109
0.117,0.98,0.094
0.105,0.977,0.098
0.105,0.984,0.09
0.109,0.992,0.102
0.109,0.98,0.102
0.102,0.98,0.09
0.105,0.977,0.102
0.105,0.988,0.105
0.094,0.988,0.105
0.09,0.984,0.098
0.102,0.98,0.094
0.105,0.984,0.094
0.094,0.984,0.094
0.09,0.977,0.105
0.117,0.98,0.09
0.109,0.984,0.094
0.113,0.98,0.098
0.121,0.988,0.09
0.102,0.988,0.094
0.098,0.977,0.094
0.102,0.98,0.09
0.105,0.984,0.086
0.109,0.984,0.094
0.102,0.973,0.09
0.113,0.98,0.09
0.117,0.988,0.094
0.098,0.98,0.086
0.098,0.984,0.086
0.102,0.977,0.09
0.105,0.98,0.09
0.09,0.988,0.086
0.09,0.984,0.09
0.09,0.984,0.09
0.078,0.984,0.105
0.082,0.988,0.094
0.102,0.992,0.086
0.086,0.984,0.098
0.086,0.984,0.09
0.094,0.984,0.078
0.094,0.992,0.09
0.094,0.988,0.09
0.094,0.977,0.094
0.09,0.988,0.09
0.086,0.984,0.09
0.078,0.984,0.094
0.094,0.992,0.094
0.098,0.988,0.086
0.094,0.984,0.102
0.082,0.977,0.09
0.09,0.988,0.098
0.086,0.996,0.09
0.074,0.984,0.094
0.078,0.984,0.094
0.09,0.988,0.102
0.09,0.988,0.086
0.09,0.988,0.094
0.09,0.988,0.09
0.086,0.977,0.09
0.086,0.984,0.09
0.094,0.988,0.094
0.082,0.988,0.098
0.09,0.977,0.102
0.086,0.984,0.094
0.094,0.992,0.094
0.09,0.98,0.09
0.078,0.992,0.094
0.082,0.984,0.09
0.078,0.992,0.09
0.078,0.992,0.09
0.074,0.992,0.086
0.082,0.988,0.105
0.066,0.984,0.094
0.055,0.965,0.094
0.043,0.984,0.086
0.051,1.008,0.086
0.063,0.996,0.078
0.059,0.992,0.074
0.074,0.98,0.078
0.102,0.98,0.082
0.102,0.992,0.09
0.086,0.98,0.086
0.094,0.977,0.078
0.105,0.984,0.078
0.133,0.988,0.063
0.148,0.988,0.066
0.125,0.988,0.051
0.125,0.977,0.051
0.105,0.992,0.039
0.078,0.98,0.027
0.078,0.984,0.02
0.055,1.023,0.016
0.031,0.992,0.012
0,1.004,-0.004
-0.027,0.969,0
0.004,0.941,-0.012
0.051,1.016,0
0.117,1.016,0.016
0.18,1.02,0.008
0.211,1.043,-0.004
0.223,1.008,-0.012
0.23,0.969,-0.031
0.23,0.945,-0.055
0.234,0.93,-0.07
0.207,0.93,-0.074
0.184,0.949,-0.066
0.188,0.965,-0.063
0.199,0.949,-0.066
0.191,0.922,-0.078
0.207,0.922,-0.094
0.211,0.91,-0.082
0.219,0.926,-0.102
0.207,0.918,-0.117
0.227,0.926,-0.148
0.266,0.969,-0.18
0.344,1.141,-0.133
0.164,1.164,-0.012
0.031,0.945,-0.113
-0.148,0.914,-0.113
-0.227,1.051,0.133
-0.098,1.117,0.289
0.191,1.156,0.258
0.449,1.023,0.16
0.414,0.906,0.129
0.25,0.836,0.125
0.074,0.785,0.102
-0.012,0.723,0.066
0.02,0.746,0.082
0.145,0.844,0.152
0.207,0.902,0.188
0.203,1,0.195
0.25,1.113,0.273
0.34,1.207,0.293
0.449,1.203,0.289
0.473,1.27,0.152
0.246,1.273,0.238
-0.051,1.004,0.25
-0.188,0.805,0.078
-0.051,0.984,0.074
0.23,1.477,0.129
0.188,1.34,0.254
0.191,0.992,0.133
0.105,0.609,-0.031
0.078,0.453,-0.047
0.086,0.406,-0.063
0.02,0.469,-0.086
-0.051,0.676,-0.039
0.012,1.004,-0.012
0.227,1.344,0.008
0.602,1.547,-0.023
0.859,1.215,-0.078
0.227,1.109,-0.031
-0.434,1.363,0.27
-0.492,1.238,0.191
-0.188,0.902,-0.047
0.078,0.805,0.027
0.313,0.945,0.117
0.176,0.734,0.016
-0.074,0.648,0.043
-0.117,0.621,0.105
0.031,0.68,0.137
0.301,0.805,0.156
0.43,0.859,0.121
0.316,1.023,-0.027
0.367,1.074,0.137
0.625,1.211,0.219
0.543,1.363,0.047
0.223,1.273,0.066
0.102,0.945,0.156
-0.023,0.918,0.039
0.059,1.449,0.086
0.133,1.609,0.164
0.172,1.141,0.07
0.184,0.648,-0.043
0.121,0.41,-0.07
0.141,0.32,-0.039
0.055,0.336,-0.113
-0.031,0.461,-0.121
0.027,0.758,-0.086
0.145,1.324,0.043
0.605,1.738,0.109
0.906,1.391,-0.086
0.254,1.5,-0.066
-0.258,1.344,0.238
-0.418,0.832,-0.02
-0.262,0.832,-0.008
-0.082,1.035,0.164
0.305,1.023,0.18
0.262,0.738,0.07
0.027,0.543,0.066
-0.047,0.609,0.145
0.031,0.672,0.145
0.34,0.762,0.07
0.555,0.879,0.055
0.367,1.063,0.055
0.418,1.172,0.238
0.516,1.203,0.063
0.379,1.395,-0.094
0.305,1.223,0.184
0.02,0.949,-0.004
0.078,1.355,0.078
0.16,1.59,0.125
0.133,1.227,0.086
0.137,0.691,-0.008
0.098,0.383,-0.078
0.105,0.262,-0.121
0.129,0.301,-0.125
0.152,0.453,-0.09
0.18,0.766,-0.051
0.234,1.398,0.027
0.539,1.715,0.086
0.781,1.238,-0.148
0.246,1.422,-0.105
-0.32,1.441,0.34
-0.406,0.98,0.07
-0.168,0.82,-0.102
0.008,0.977,0.102
0.297,1.074,0.215
0.289,0.867,0.137
0.07,0.551,0.047
-0.059,0.539,0.07
-0.027,0.563,0.145
0.164,0.688,0.098
0.355,0.91,0.078
0.383,1.082,0.078
0.469,1.203,0.203
0.609,1.238,0.102
0.418,1.313,-0.141
0.125,1.254,0.168
-0.078,1.008,0.109
0.043,1.234,0.055
0.152,1.527,0.109
0.148,1.25,0.074
0.184,0.813,-0.02
0.148,0.496,-0.055
0.184,0.391,-0.07
0.145,0.375,-0.094
0.094,0.34,-0.176
0.004,0.574,-0.035
0.164,0.996,0.082
0.309,1.645,0.16
0.766,1.492,0.051
0.609,1.32,-0.059
-0.109,1.637,0.188
-0.336,1.109,0.16
-0.328,0.789,-0.148
-0.211,0.859,0
0.031,1.129,0.203
0.223,0.996,0.156
0.109,0.695,0.078
0.008,0.598,0.113
0.105,0.594,0.145
0.258,0.637,0.152
0.32,0.789,0.078
0.379,0.945,0.121
0.297,1.047,0.059
0.496,1.156,0.164
0.563,1.242,0.008
0.234,1.43,0.066
0.105,1.156,0.25
0.039,0.879,0.082
0.105,1.281,0.055
0.176,1.578,0.191
0.176,1.207,0.133
0.211,0.73,0.016
0.156,0.402,-0.066
0.152,0.316,-0.094
0.133,0.344,-0.121
0.105,0.465,-0.113
0.086,0.766,0.008
0.207,1.25,0.09
0.582,1.68,0.184
0.855,1.211,-0.102
0.363,1.344,-0.043
-0.336,1.527,0.371
-0.477,1.098,0.09
-0.168,0.773,-0.094
0.023,0.84,0.082
0.238,1.082,0.242
0.219,0.816,0.117
0.02,0.598,0.066
0,0.574,0.082
0.117,0.605,0.109
0.262,0.758,0.117
0.27,0.996,0.117
0.305,1.086,0.133
0.453,1.074,0.203
0.488,1.195,0.117
0.211,1.297,0.031
0.168,1.23,0.297
0.012,1.066,0.129
-0.008,1.301,0.031
0.145,1.531,0.16
0.199,1.215,0.137
0.219,0.758,0.043
0.125,0.469,0
0.113,0.375,-0.043
0.102,0.398,-0.07
0.145,0.496,-0.125
0.195,0.699,-0.043
0.316,1.191,0.012
0.457,1.613,0.066
0.672,1.203,-0.043
0.098,1.461,0.004
-0.113,1.383,0.363
-0.188,0.922,-0.02
0.055,0.859,-0.004
0.078,1.074,0.16
0.137,1.078,0.234
0.09,0.867,0.148
0.004,0.711,0.117
0.043,0.688,0.121
0.148,0.695,0.086
0.27,0.773,0.055
0.164,0.875,0.098
0.027,0.969,0.105
0.199,0.984,0.215
0.375,1.039,0.242
0.332,1.07,0.055
0.148,1.188,0.125
0.313,1.141,0.035
0.152,1.34,-0.016
0.035,1.453,0.047
0.059,1.137,-0.031
0.188,0.805,-0.074
0.273,0.648,-0.09
0.258,0.637,-0.109
0.246,0.734,-0.102
0.297,0.789,-0.121
0.336,0.715,-0.152
0.363,0.789,-0.16
0.406,0.98,-0.129
0.41,1.082,-0.121
0.27,1.156,-0.086
-0.023,1.488,0.027
0.031,1.129,0.168
-0.063,0.859,0.105
-0.109,0.938,0.211
-0.016,1.133,0.273
0.207,1.102,0.238
0.297,0.977,0.195
0.25,0.844,0.156
0.18,0.781,0.133
0.141,0.84,0.176
0.137,0.887,0.172
0.148,0.93,0.176
0.156,0.934,0.191
0.152,0.941,0.184
0.199,0.945,0.18
0.254,0.93,0.18
0.254,0.879,0.184
0.219,0.906,0.191
0.199,0.961,0.211
0.23,0.961,0.23
0.293,0.977,0.254
0.32,1.02,0.23
0.336,1.09,0.238
0.367,1.066,0.246
0.273,1.023,0.18
0.172,0.938,0.16
0.125,0.863,0.039
0.078,0.848,-0.039
0.09,0.957,0.004
0.137,1.168,0.063
0.203,1.203,0.113
0.262,0.98,0.055
0.32,0.793,-0.004
0.324,0.766,0.012
0.277,0.859,0.055
0.152,0.883,0.066
0.055,0.809,0.004
0.051,0.773,-0.012
0.133,0.875,-0.008
0.227,0.988,0
0.32,1.051,0.008
0.523,1.078,0.012
0.652,0.973,-0.027
0.527,1.094,-0.016
0.188,1.277,0.141
-0.031,1.137,0.09
-0.043,0.848,-0.008
-0.047,0.805,0.035
0.016,0.961,0.121
0.066,1.07,0.152
0.137,1.016,0.109
0.082,0.977,0.148
0.098,0.906,0.16
0.094,0.855,0.156
0.148,0.809,0.148
0.195,0.824,0.141
0.258,0.891,0.16
0.285,0.926,0.176
0.246,0.949,0.18
0.148,0.992,0.148
0.07,1.012,0.156
0.145,1.016,0.172
0.195,1.086,0.16
0.152,1.121,0.141
0.355,1.195,0.242
0.379,1.102,0.266
0.059,1,0.168
-0.129,0.859,-0.012
0.008,0.898,-0.016
0.242,1.121,0.047
0.293,1.137,0.105
0.203,0.938,0.02
0.188,0.809,-0.027
0.184,0.777,-0.016
0.164,0.797,-0.008
0.188,0.863,-0.004
0.203,0.855,-0.012
0.219,0.887,0.02
0.262,0.973,0.02
0.258,1.016,-0.031
0.32,0.949,-0.078
0.25,0.93,0.012
0.023,1.176,0.098
0.004,1.309,0.223
-0.063,1.043,0.098
-0.031,0.969,0.188
0.059,0.996,0.242
0.059,0.969,0.242
-0.043,0.93,0.23
-0.004,0.918,0.23
0.156,0.902,0.191
0.137,0.891,0.219
0.141,0.926,0.207
0.09,0.934,0.219
0.07,0.977,0.215
0.059,1.008,0.223
0.133,1.027,0.184
0.16,0.945,0.129
0.094,0.918,0.129
0.059,0.988,0.152
0.047,0.992,0.148
-0.004,0.98,0.199
0.039,1.07,0.262
0.219,1.215,0.277
0.117,1.152,0.246
0.121,1.004,0.223
0.121,0.82,0.141
0.09,0.813,0.094
0.047,0.938,0.086
0.055,1.105,0.098
0.109,1.125,0.086
0.074,0.953,0.012
0.066,0.871,0.004
0.09,0.887,0.016
0.105,0.91,0.016
0.141,0.953,-0.008
0.055,0.969,0
-0.039,1.012,-0.043
-0.07,0.992,-0.105
-0.129,0.949,-0.164
-0.121,0.902,-0.156
-0.078,0.879,-0.168
0.016,0.891,-0.195
0.09,0.844,-0.195
0.105,0.926,-0.129
0.109,1.219,-0.004
-0.008,1.363,0.316
0.027,1.289,0.383
0.109,0.883,0.195
0.305,0.75,0.258
0.273,0.973,0.316
0.133,1.059,0.383
-0.008,0.934,0.266
-0.016,0.898,0.18
0.02,0.953,0.141
-0.082,1.02,0.09
-0.082,1.09,0.023
-0.055,1.129,-0.078
-0.148,1.051,-0.105
-0.148,0.953,0.078
-0.023,0.977,0.145
0.059,0.984,0.043
0.172,0.906,0.078
0.301,0.859,0.063
0.32,0.918,-0.055
0.121,0.98,-0.094
0.039,0.98,-0.105
0.047,0.969,-0.152
0.047,0.898,-0.191
0.055,0.848,-0.211
0.078,0.852,-0.23
0.109,0.969,-0.227
0.09,1.129,-0.074
-0.035,1.34,0.102
0.191,1.141,0.305
0.297,0.813,0.121
0.172,0.957,0.266
0.059,1.004,0.359
0.082,0.965,0.367
0.141,0.938,0.34
0.113,0.879,0.211
0.004,0.84,0.137
0,0.887,0.121
0.125,0.973,0.16
0.164,1.047,0.227
0.133,1.039,0.215
0.156,0.98,0.172
0.195,0.984,0.16
0.129,1.086,0.195
0.105,1.188,0.277
-0.066,1.094,0.258
-0.273,0.895,0.168
-0.219,0.762,0.035
-0.027,1.012,0.047
0.137,1.195,0.121
0.074,1.117,0.117
0.098,0.941,0.004
0.125,0.84,-0.023
0.051,0.848,0
-0.031,0.863,-0.012
-0.082,0.797,-0.023
-0.156,0.883,0.09
-0.117,0.836,0.086
0,0.582,-0.012
0.086,0.387,-0.023
0.094,0.547,-0.039
0.301,1.039,-0.012
0.328,1.426,0.145
0.203,1.926,0.129
0.238,2.711,0.086
0.414,3.566,0.785
0.242,2.582,0.367
-0.344,1.285,-0.008
-0.422,0.555,0.156
-0.805,-0.188,0.172
-0.266,-0.52,0.117
0.129,-0.617,-0.098
0.188,-0.336,-0.102
0.043,0.086,0.012
-0.008,0.32,0.102
0.004,0.285,0.063
-0.094,0.16,0.004
-0.043,-0.066,-0.059
-0.305,-0.055,-0.102
-0.82,0.578,-0.246
0.922,4.668,0.461
1.98,2.988,0.566
1.023,2.988,0.227
-0.016,3.113,0.645
-0.52,1.523,0.137
-0.441,0.297,0.051
-0.414,-0.285,0.105
-0.074,-0.551,-0.027
-0.039,-0.625,-0.199
-0.043,-0.254,-0.082
-0.008,0.105,0.047
0.035,0.359,0.098
0.055,0.238,0.066
-0.035,0.027,0.027
-0.082,-0.16,0.047
-0.457,0.039,-0.203
-0.707,1.152,-0.434
2.422,7.043,3.863
1.563,2.043,-0.91
0.672,3.832,0.852
-0.164,2.277,0.09
-0.391,0.688,0.164
-0.477,-0.055,0.129
-0.332,-0.617,0.09
-0.211,-0.691,-0.16
-0.145,-0.305,-0.133
0.035,0.023,0.031
0.246,0.223,0.156
0.234,0.238,0.063
0.02,0.078,0.023
-0.246,-0.051,-0.035
-0.371,-0.133,-0.066
-0.355,0.684,-0.297
0.773,5.156,1.059
1.559,1.785,-0.145
0.68,1.695,-0.199
0.375,1.281,0.008
0.039,0.91,-0.035
-0.223,0.484,0.031
-0.289,0.441,-0.004
-0.152,0.566,-0.047
-0.039,0.699,-0.105
0.094,0.902,-0.094
0.316,1.117,0
0.301,1.031,0.035
0.098,1,0.016
-0.008,1.137,0.016
0.02,1.164,0.012
0.043,1.047,-0.023
0.016,1.063,-0.012
0.035,1.043,0.008
0.039,1.035,0.039
0.023,1.012,0.02
0.008,0.918,-0.023
0.035,0.867,-0.004
0.027,0.836,0.031
0.027,0.879,0.023
0.043,0.848,-0.004
0.086,0.918,0.008
0.059,0.918,0.047
-0.008,0.945,0.016
-0.016,1.102,0.027
0.113,1.094,0.055
0.074,1.031,0.02
-0.02,1.109,0.027
0.051,1.055,0.023
0.051,1.004,0.055
0.035,0.973,0.035
0.098,0.961,0.02
0.121,0.965,0.023
0.051,0.984,0.039
0.027,1.023,0.035
0.063,0.992,0.016
0.098,1.008,0.008
0.113,1.023,0.031
0.086,0.961,0.039
0.023,0.996,0.07
0.027,0.992,0.051
0.102,0.992,0.027
0.133,1.008,0.027
0.098,0.992,0.039
0.094,0.98,0.031
0.09,0.984,0.031
0.082,0.988,0.039
0.07,0.984,0.027
0.066,0.977,0.031
0.109,0.988,0.043
0.129,0.996,0.039
0.117,0.984,0.039
0.098,0.992,0.043
0.078,0.992,0.035
0.086,0.996,0.043
0.105,0.984,0.039
0.102,0.984,0.031
0.094,0.988,0.035
0.105,0.988,0.039
0.105,0.984,0.027
0.109,0.996,0.031
0.109,0.992,0.027
0.102,0.984,0.035
0.113,0.992,0.027
0.109,0.98,0.023
0.121,0.98,0.023
0.113,0.973,0.02
0.113,0.984,0.023
0.109,0.98,0.02
0.125,0.988,0.02
0.145,0.984,0.016
0.129,0.984,0.016
0.125,0.973,0.023
0.117,0.984,0.02
0.129,0.98,0.016
0.129,0.988,0.016
0.133,0.98,0.016
0.141,0.973,0.016
0.137,0.98,0.02
0.129,0.98,0.016
0.125,0.977,0.02
0.125,0.984,0.02
0.125,0.98,0.023
0.145,0.984,0.02
0.137,0.984,0.02
0.125,0.973,0.02
0.117,0.969,0.023
0.125,0.965,0.02
0.148,0.988,0.035
0.145,0.992,0.02
0.113,1,0.02
0.094,0.992,0.027
0.094,0.988,0.031
0.094,0.984,0.031
0.105,0.988,0.035
0.121,0.98,0.027
0.125,0.98,0.035
0.129,0.984,0.023
0.121,0.98,0.027
0.121,0.984,0.035
0.125,0.988,0.031
0.109,0.984,0.031
0.117,0.988,0.035
0.121,0.98,0.027
0.125,0.984,0.031
0.125,0.992,0.027
0.121,0.977,0.027
0.125,0.984,0.039
0.121,0.973,0.027
0.113,0.969,0.031
0.145,0.988,0.035
0.16,0.984,0.027
0.129,0.988,0.031
0.109,0.984,0.035
0.117,0.98,0.023
0.121,0.984,0.031
0.121,0.984,0.027
0.125,0.984,0.023
0.125,0.98,0.023
0.125,0.977,0.027
0.133,0.992,0.031
0.141,0.984,0.027
0.129,0.98,0.027
0.109,0.992,0.035
0.109,0.984,0.031
0.125,0.98,0.027
0.125,0.973,0.027
0.129,0.98,0.035
0.129,0.977,0.035
0.125,0.98,0.035
0.125,0.984,0.027
0.125,0.98,0.031
0.129,0.984,0.027
0.137,0.98,0.031
0.129,0.984,0.023
0.133,0.992,0.031
0.145,0.977,0.031
0.133,0.984,0.027
0.125,0.98,0.031
0.133,0.988,0.023
0.145,0.977,0.023
0.137,0.977,0.027
0.129,0.977,0.027
0.141,0.98,0.023
0.137,0.98,0.023
0.133,0.98,0.023
0.145,0.98,0.023
0.141,0.984,0.02
0.137,0.98,0.023
0.129,0.98,0.027
0.137,0.984,0.023
0.137,0.984,0.027
0.141,0.98,0.023
0.141,0.98,0.02
0.137,0.977,0.02
0.125,0.977,0.023
0.129,0.977,0.023
0.137,0.984,0.02
0.133,0.973,0.02
0.129,0.98,0.023
0.125,0.977,0.023
0.125,0.98,0.023
0.125,0.984,0.02
0.113,0.988,0.023
0.113,0.988,0.02
0.121,0.988,0.023
0.117,0.984,0.031
0.121,0.98,0.023
0.117,0.984,0.027
0.121,0.98,0.031
0.121,0.984,0.031
0.117,0.988,0.027
0.121,0.988,0.031
0.121,0.98,0.031
0.121,0.984,0.039
0.117,0.984,0.035
0.117,0.98,0.031
0.125,0.977,0.031
0.125,0.984,0.023
0.125,0.984,0.039
0.133,0.992,0.027
0.129,0.984,0.023
0.129,0.98,0.035
0.129,0.98,0.039
0.125,0.988,0.035
0.125,0.98,0.039
0.125,0.984,0.035
0.129,0.984,0.027
0.129,0.977,0.031
0.129,0.98,0.035
0.133,0.98,0.035
0.141,0.977,0.035
0.141,0.98,0.035
0.133,0.98,0.035
0.137,0.98,0.031
0.133,0.984,0.031
0.133,0.984,0.035
0.129,0.98,0.035
0.129,0.984,0.035
0.125,0.984,0.035
0.129,0.977,0.035
0.133,0.98,0.035
0.133,0.98,0.035
0.133,0.977,0.035
0.129,0.98,0.027
0.133,0.977,0.039
0.129,0.98,0.035
0.129,0.98,0.043
0.141,0.973,0.039
0.141,0.98,0.031
0.133,0.988,0.039
0.129,0.98,0.043
0.129,0.977,0.043
0.129,0.98,0.043
0.129,0.984,0.035
0.125,0.98,0.039
0.129,0.977,0.035
0.129,0.984,0.043
0.125,0.98,0.043
0.125,0.988,0.039
0.133,0.984,0.043
0.125,0.988,0.043
0.125,0.984,0.043
0.117,0.977,0.047
0.125,0.973,0.047
0.109,0.988,0.047
0.117,0.992,0.051
0.109,0.98,0.047
0.102,0.988,0.047
0.094,1,0.051
0.074,0.98,0.066
0.047,0.969,0.059
0.043,1,0.023
-0.004,0.988,0.031
-0.031,0.809,-0.004
-0.039,0.57,-0.008
-0.027,0.465,0
0.211,0.578,0.051
0.234,0.781,0.016
0.332,1.102,-0.035
0.68,1.762,-0.23
0.617,3.082,0.219
0.602,3.039,0.43
0.168,2.039,0.121
-0.289,1.098,0.141
-0.336,0.246,0.098
-0.34,-0.266,0.055
-0.125,-0.477,0.035
-0.082,-0.355,-0.066
-0.07,-0.09,-0.035
0.031,0.055,0.039
0.082,0.156,0.063
-0.066,0.098,0.043
-0.223,0.258,-0.023
-0.508,1,-0.133
0.191,3.309,0.652
1.871,2.477,0.098
1.613,2.332,-0.301
0.844,3.137,0.457
0.402,2.375,0.23
-0.324,1.023,0.148
-0.461,0.398,0.141
-0.48,-0.316,0.117
-0.094,-0.68,-0.063
-0.004,-0.516,-0.086
-0.07,-0.105,-0.023
-0.113,0.223,0.094
-0.031,0.195,0.051
-0.043,0.117,-0.031
-0.125,0.016,-0.027
-0.375,0.41,-0.094
-0.02,1.941,-0.258
2.184,4.855,1.68
1.379,2.422,-0.48
1.227,3.32,0.707
0.445,2.301,0.129
-0.156,1.359,0.234
-0.387,0.125,0.039
-0.566,-0.285,0.176
-0.223,-0.605,0.02
-0.133,-0.473,-0.145
0.027,-0.211,-0.109
0.09,0.125,0.039
0.121,0.309,0.102
-0.023,0.191,0.008
-0.336,0.082,-0.164
-0.227,0.215,-0.105
-0.539,2.004,-0.637
2.039,4.895,1.867
1.133,1.293,-0.297
0.66,1.566,0.207
0.031,0.98,0.133
-0.242,0.559,0.059
-0.215,0.273,0.063
-0.133,0.359,-0.016
-0.094,0.855,-0.129
-0.137,1.453,0.02
0.301,1.48,0.105
0.281,1.023,0.008
0.168,0.75,0.02
0.113,0.785,0.02
0.086,0.941,0.059
0.094,1.117,0.094
0.121,1.059,0.086
0.102,1.023,0.055
0.102,0.977,0.004
0.059,0.969,0.016
0.055,0.969,0.016
0.063,0.973,0.027
0.094,0.988,0.047
0.102,0.98,0.027
0.098,0.992,0.012
0.094,0.969,0.016
0.086,0.969,0.023
0.09,0.98,0.031
0.113,1.008,0.035
0.098,0.992,0.023
0.082,0.98,0.02
0.113,0.992,0.02
0.125,0.992,0.02
0.121,0.984,0.027
0.109,0.98,0.023
0.117,0.988,0.023
0.129,0.98,0.023
0.137,0.984,0.035
0.137,0.98,0.035
0.129,0.98,0.027
0.125,0.984,0.031
0.129,0.988,0.031
0.121,0.98,0.035
0.113,1,0.039
0.102,0.988,0.031
0.105,0.98,0.035
0.113,0.98,0.035
0.109,0.98,0.039
0.109,0.996,0.039
0.105,0.984,0.039
0.105,0.988,0.031
0.102,0.988,0.035
0.105,0.984,0.031
0.102,0.984,0.039
0.102,0.977,0.035
0.125,0.984,0.031
0.125,0.984,0.023
0.109,0.984,0.039
0.09,0.996,0.043
0.086,0.992,0.035
0.09,0.992,0.035
0.094,0.973,0.031
0.102,0.98,0.039
0.102,0.988,0.039
0.09,0.992,0.047
0.094,0.988,0.031
0.102,0.988,0.031
0.113,0.988,0.027
0.117,0.988,0.031
0.105,0.98,0.027
0.098,0.992,0.039
0.098,0.988,0.031
0.094,0.984,0.035
0.09,1,0.031
0.09,0.977,0.027
0.09,0.996,0.023
0.098,0.984,0.02
0.09,0.992,0.035
0.09,0.984,0.023
0.094,0.977,0.023
0.09,0.992,0.02
0.094,0.98,0.02
0.105,0.984,0.02
0.105,0.992,0.023
0.109,0.984,0.023
0.098,0.984,0.02
0.109,0.984,0.023
0.117,0.988,0.02
0.121,0.996,0.023
0.117,0.988,0.02
0.121,0.98,0.02
0.109,0.98,0.027
0.109,0.984,0.035
0.113,0.98,0.027
0.109,0.988,0.027
0.113,0.988,0.023
0.121,0.984,0.023
0.117,0.98,0.027
0.121,0.98,0.031
0.121,0.988,0.027
0.125,0.984,0.023
0.125,0.98,0.027
0.121,0.98,0.027
0.121,0.988,0.027
0.117,0.988,0.023
0.125,0.98,0.027
0.109,0.98,0.031
0.125,0.988,0.031
0.125,0.98,0.031
0.113,0.977,0.035
0.117,0.984,0.035
0.121,0.98,0.031
0.121,0.98,0.043
0.121,0.984,0.035
0.113,0.988,0.039
0.121,0.984,0.039
0.121,0.98,0.035
0.113,0.98,0.039
0.117,0.992,0.043
0.125,0.98,0.031
0.121,0.988,0.039
0.125,0.98,0.043
0.125,0.984,0.043
0.121,0.984,0.039
0.125,0.984,0.043
0.129,0.98,0.035
0.129,0.977,0.039
0.121,0.984,0.043
0.121,0.988,0.047
0.117,0.98,0.039
0.125,0.988,0.039
0.129,0.98,0.047
0.125,0.988,0.047
0.125,0.992,0.043
0.133,0.984,0.039
0.129,0.98,0.043
0.129,0.984,0.047
0.121,0.988,0.043
0.117,0.977,0.043
0.125,0.977,0.043
0.125,0.984,0.039
0.125,0.98,0.047
0.117,0.984,0.043
0.125,0.984,0.043
0.121,0.984,0.043
0.125,0.984,0.047
0.129,0.977,0.043
0.117,0.98,0.047
0.121,0.992,0.039
0.129,0.984,0.039
0.125,0.98,0.039
0.125,0.984,0.039
0.125,0.988,0.039
0.133,0.98,0.035
0.129,0.988,0.035
0.125,0.98,0.039
0.113,0.98,0.039
0.125,0.984,0.039
0.121,0.977,0.035
0.117,0.984,0.039
0.137,0.98,0.039
0.133,0.98,0.039
0.121,0.984,0.039
0.125,0.992,0.031
0.137,0.98,0.035
0.125,0.98,0.039
0.125,0.98,0.043
0.121,0.984,0.039
0.125,0.984,0.039
0.121,0.98,0.039
0.121,0.98,0.039
0.125,0.98,0.039
0.125,0.973,0.035
0.125,0.98,0.035
0.121,0.98,0.039
0.129,0.98,0.031
0.133,0.98,0.039
0.125,0.98,0.039
0.137,0.992,0.039
0.129,0.984,0.035
0.125,0.98,0.039
0.125,0.98,0.035
0.125,0.98,0.035
0.125,0.98,0.043
0.121,0.984,0.035
0.121,0.984,0.039
0.125,0.98,0.039
0.121,0.984,0.043
0.121,0.984,0.039
0.113,0.988,0.039
0.121,0.984,0.039
0.121,0.984,0.043
0.117,0.98,0.039
0.129,0.992,0.047
0.121,0.98,0.039
0.125,0.984,0.047
0.125,0.98,0.043
0.121,0.984,0.039
0.121,0.984,0.047
0.125,0.98,0.039
0.125,0.984,0.043
0.129,0.977,0.047
0.121,0.98,0.043
0.125,0.98,0.047
0.121,0.984,0.043
0.125,0.98,0.043
0.117,0.984,0.043
0.125,0.98,0.043
0.125,0.984,0.043
0.125,0.988,0.051
0.125,0.98,0.051
0.121,0.98,0.047
0.113,0.988,0.047
0.125,0.98,0.043
0.125,0.98,0.039
0.125,0.984,0.043
0.117,0.984,0.043
0.117,0.988,0.047
0.117,0.984,0.047
0.125,0.98,0.047
0.125,0.984,0.047
0.125,0.984,0.051
0.129,0.977,0.043
0.133,0.992,0.039
0.125,0.98,0.043
0.121,0.98,0.047
0.117,0.988,0.047
0.121,0.984,0.051
0.125,0.977,0.047
0.129,0.98,0.047
0.129,0.984,0.047
0.121,0.973,0.047
0.125,0.98,0.047
0.125,0.984,0.051
0.129,0.98,0.051
0.125,0.984,0.051
0.125,0.98,0.051
0.129,0.98,0.055
0.129,0.992,0.051
0.121,0.984,0.055
0.121,0.98,0.051
0.125,0.98,0.051
0.125,0.984,0.051
0.125,0.984,0.051
0.125,0.98,0.051
0.129,0.973,0.051
0.121,0.98,0.051
0.125,0.988,0.055
0.125,0.98,0.047
0.129,0.973,0.047
0.125,0.98,0.051
0.133,0.984,0.043
0.129,0.98,0.043
0.129,0.992,0.051
0.125,0.988,0.043
0.125,0.988,0.047
0.125,0.98,0.043
0.125,0.98,0.043
0.133,0.984,0.043
0.125,0.98,0.043
0.121,0.984,0.039
0.094,0.957,0.023
0.086,0.957,0.023
0.129,1.004,0.02
0.156,0.977,0.008
0.168,0.973,0.016
0.16,0.973,0.016
0.16,0.957,0.02
0.156,0.973,0.031
0.156,0.961,0.043
0.16,0.953,0.066
0.16,0.973,0.086
0.176,0.965,0.113
0.195,0.957,0.094
0.172,0.992,0.066
0.16,1.012,0.023
0.125,1.008,0.059
0.109,0.977,0.102
0.18,0.926,0.098
0.234,0.902,0.113
0.266,0.898,0.125
0.266,0.922,0.113
0.273,0.918,0.113
0.313,0.902,0.09
0.309,0.902,0.09
0.082,0.895,0.113
-0.105,0.953,0.164
-0.004,1.016,0.23
0.336,1.086,0.242
0.543,1.16,0.223
0.574,1.445,0.34
0.285,1.512,0.18
-0.168,1.223,0.203
-0.289,1.016,0.148
-0.063,1.223,0
0.059,1.484,0.184
0.035,1.098,0.176
0.016,0.652,0.035
0.055,0.324,-0.043
0.125,0.195,-0.082
0.184,0.188,-0.121
0.043,0.355,-0.121
0.047,0.734,-0.098
0.164,1.199,0.02
0.465,1.801,0.109
0.941,1.508,0.031
0.023,1.465,0.023
-0.617,1.516,0.289
-0.391,0.98,-0.004
-0.285,0.84,-0.102
0.035,1.145,0.172
0.289,1.168,0.277
0.242,0.875,0.16
0.078,0.508,0.078
-0.023,0.301,0.02
-0.035,0.465,0.109
0.07,0.578,0.16
0.121,0.781,0.129
0.102,1.059,0.012
0.434,1.109,0.078
0.605,1.383,0.137
0.504,1.523,0.102
0.203,1.547,0.051
0.098,1.227,0.32
-0.09,1.039,-0.059
0.035,1.512,0.133
0.117,1.359,0.16
0.105,0.836,0.07
0.016,0.395,-0.031
-0.004,0.164,-0.105
0.016,0.152,-0.148
0.109,0.277,-0.168
0.121,0.605,-0.09
0.273,1.109,0.016
0.469,1.582,0.051
0.84,1.672,0.02
0.891,1.035,-0.047
-0.508,1.254,0.008
-0.773,1.773,0.637
-0.375,1.09,-0.027
0.09,0.738,-0.113
0.297,1.156,0.297
0.348,1.113,0.25
0.125,0.551,0.008
-0.109,0.344,0.02
-0.102,0.379,0.066
0.027,0.484,0.117
0.207,0.703,0.09
0.313,1.012,0.117
0.395,1.148,0.156
0.672,1.32,0.301
0.613,1.355,0.082
0.316,1.449,-0.066
0.055,1.273,0.285
-0.242,1.043,0.098
-0.113,1.336,0
0.199,1.516,0.105
0.242,1.215,0.105
0.191,0.785,0
0.051,0.43,-0.063
0.027,0.25,-0.09
0.078,0.242,-0.086
0.133,0.281,-0.137
0.055,0.5,-0.078
0.223,0.984,0.043
0.48,1.664,0.133
0.965,1.781,0.07
0.809,1.254,-0.047
-0.316,1.352,-0.008
-0.516,1.461,0.426
-0.352,0.98,-0.027
-0.121,0.723,-0.133
0.09,1.02,0.188
0.328,1.117,0.258
0.207,0.688,0.063
0.02,0.477,0.043
-0.031,0.551,0.09
0.063,0.609,0.207
0.348,0.617,0.164
0.379,0.797,0.051
0.383,0.949,0
0.457,1.121,0.09
0.566,1.398,0.18
0.656,1.465,0.059
0.18,1.48,0.035
0.016,1.07,0.148
-0.066,0.828,-0.004
0.094,1.477,0.141
0.289,1.457,0.172
0.188,0.93,0.02
0.094,0.512,-0.043
0.078,0.336,-0.074
0.098,0.293,-0.105
0.184,0.379,-0.074
0.141,0.523,-0.07
0.219,0.828,-0.051
0.223,1.348,0.012
0.68,1.699,0.008
0.945,1.223,-0.047
-0.164,1.422,-0.094
-0.523,1.578,0.441
-0.449,0.98,-0.035
-0.152,0.777,-0.117
0.137,1.113,0.246
0.391,1.121,0.27
0.215,0.68,0.055
-0.02,0.449,0.031
-0.066,0.48,0.082
0.082,0.547,0.18
0.324,0.633,0.105
0.266,0.855,0
0.258,1.141,0.063
0.398,1.223,0.195
0.602,1.313,0.176
0.566,1.395,-0.082
0.211,1.313,0.172
-0.094,1.02,0.129
-0.117,1.051,-0.023
0.152,1.512,0.125
0.273,1.41,0.109
0.219,0.898,0.043
0.152,0.52,-0.07
0.086,0.367,-0.078
0.105,0.348,-0.039
0.172,0.328,-0.082
0.074,0.445,-0.098
0.156,0.828,-0.066
0.324,1.465,-0.008
0.809,1.668,-0.023
0.664,1.301,0.008
-0.328,1.73,0.051
-0.328,1.281,0.371
-0.305,0.688,-0.215
-0.199,0.84,-0.012
-0.023,1.262,0.281
0.285,1.102,0.219
0.211,0.66,0.066
0.02,0.484,0.043
0,0.48,0.027
0.059,0.535,0.117
0.219,0.609,0.125
0.23,0.859,0.035
0.309,1.074,0.063
0.457,1.211,0.172
0.598,1.391,0.145
0.563,1.449,-0.023
0.207,1.344,0.227
-0.094,1.02,0.215
-0.094,1.02,-0.004
0.094,1.461,0.105
0.223,1.41,0.164
0.141,0.938,0.082
0.098,0.508,-0.027
0.102,0.305,-0.109
0.105,0.246,-0.113
0.164,0.348,-0.098
0.137,0.555,-0.012
0.203,0.965,0.039
0.281,1.598,0.047
0.738,1.598,-0.055
0.672,1.25,-0.051
-0.363,1.543,0.063
-0.445,1.363,0.398
-0.293,0.832,-0.09
-0.086,0.781,-0.035
0.156,1.066,0.219
0.309,1.008,0.23
0.156,0.656,0.063
-0.031,0.52,0.059
-0.035,0.57,0.133
0.16,0.598,0.133
0.301,0.688,0.063
0.313,0.961,0.09
0.375,1.113,0.152
0.555,1.254,0.219
0.617,1.352,0.051
0.34,1.418,-0.012
0.121,1.203,0.309
-0.121,0.895,0.063
-0.059,1.23,0.055
0.18,1.551,0.148
0.254,1.246,0.109
0.23,0.723,0.012
0.188,0.41,-0.047
0.164,0.293,-0.09
0.152,0.355,-0.059
0.102,0.438,-0.023
0.047,0.699,-0.027
0.047,1.168,0.02
0.359,1.66,0.027
0.816,1.262,-0.117
0.523,1.445,-0.016
-0.367,1.766,0.434
-0.492,1.133,0.137
-0.277,0.668,-0.203
-0.082,0.859,0.063
0.184,1.129,0.254
0.262,0.945,0.145
0.086,0.598,0.035
0.012,0.488,0.039
0.07,0.582,0.129
0.293,0.621,0.109
0.363,0.789,0.078
0.316,1.02,0.098
0.297,1.012,0.133
0.551,1.285,0.133
0.496,1.461,-0.047
0.277,1.496,0.203
0,1.133,0.242
-0.203,0.91,0.008
0.082,1.414,0.074
0.223,1.492,0.176
0.145,0.984,0.094
0.086,0.477,-0.027
0.141,0.277,-0.086
0.141,0.262,-0.086
0.168,0.402,-0.105
0.078,0.563,-0.059
0.098,0.938,-0.008
0.203,1.438,0.066
0.66,1.66,0.035
0.949,1.172,-0.113
0.043,1.402,-0.074
-0.48,1.621,0.578
-0.566,1.027,0.066
-0.27,0.75,-0.145
0.043,1.039,0.203
0.305,1.105,0.25
0.277,0.758,0.121
0.051,0.438,0.008
-0.035,0.469,0.035
0.07,0.582,0.117
0.273,0.676,0.133
0.242,0.84,0.105
0.215,1.047,0.047
0.434,1.203,0.195
0.578,1.41,0.078
0.398,1.52,-0.07
0.117,1.313,0.363
-0.078,0.953,0.129
0.059,1.258,-0.02
0.176,1.613,0.234
0.086,1.324,0.219
0.082,0.75,0.043
0.047,0.348,-0.063
0.082,0.211,-0.113
0.109,0.281,-0.152
0.141,0.402,-0.105
0.125,0.676,0.008
0.16,1.098,0.07
0.359,1.734,0.113
0.813,1.406,-0.012
0.125,1.578,0.047
-0.164,1.734,0.445
-0.32,0.793,-0.055
-0.281,0.625,-0.16
-0.133,1.09,0.184
0.176,1.348,0.32
0.215,0.93,0.117
-0.016,0.457,0.023
-0.047,0.484,0.098
0.063,0.543,0.172
0.27,0.582,0.113
0.262,0.703,0.059
0.188,1.055,0.063
0.281,1.094,0.145
0.629,1.238,0.148
0.5,1.457,-0.098
0.227,1.578,0.281
-0.023,1.211,0.344
-0.203,0.961,-0.07
0.063,1.414,0.055
0.211,1.363,0.172
0.164,0.938,0.082
0.078,0.539,0.004
0.063,0.332,-0.074
0.094,0.266,-0.113
0.18,0.363,-0.145
0.102,0.609,-0.074
0.156,0.84,0.078
0.32,1.406,0.168
0.656,1.594,0.105
0.641,1.277,-0.047
-0.313,1.641,0.168
-0.301,1.375,0.449
-0.387,0.73,-0.191
-0.18,0.785,-0.105
0.141,1.27,0.27
0.316,1.117,0.246
0.164,0.578,0.063
-0.027,0.371,0.016
-0.008,0.484,0.113
0.18,0.59,0.148
0.293,0.719,0.078
0.309,0.973,0.105
0.32,1.078,0.113
0.484,1.176,0.195
0.484,1.281,0.031
0.344,1.523,0.035
0.27,1.285,0.336
-0.137,0.984,0.148
-0.039,1.289,0.066
0.152,1.574,0.141
0.121,1.211,0.137
0.133,0.695,0.039
0.152,0.348,-0.043
0.164,0.215,-0.094
0.16,0.293,-0.098
0.125,0.426,-0.109
0.121,0.711,-0.035
0.16,1.238,0.035
0.492,1.836,0.137
0.914,1.254,-0.105
0.215,1.422,-0.094
-0.238,1.574,0.395
-0.434,1.047,0.055
-0.266,0.797,-0.098
-0.082,0.934,0.133
0.16,1.063,0.207
0.195,0.785,0.129
0,0.527,0.059
-0.004,0.555,0.086
0.164,0.621,0.184
0.348,0.695,0.109
0.336,0.891,0.086
0.316,0.973,0.055
0.383,1.074,0.105
0.633,1.281,0.133
0.57,1.457,0.008
0.199,1.398,0.234
-0.125,1.074,0.27
-0.125,1.004,0.039
0.125,1.504,0.074
0.188,1.434,0.195
0.063,0.926,0.066
0.039,0.43,-0.016
0.113,0.262,-0.07
0.199,0.277,-0.094
0.234,0.387,-0.102
0.188,0.625,0.051
0.164,0.977,0.082
0.18,1.453,0.098
0.563,1.543,0.016
0.449,1.527,0.074
-0.039,1.727,0.227
-0.293,1.066,0.105
-0.359,0.738,-0.121
-0.234,0.926,0.074
0.059,1.219,0.293
0.211,0.941,0.18
0.039,0.523,0.055
-0.055,0.508,0.09
0.082,0.574,0.164
0.277,0.543,0.125
0.266,0.695,0.027
0.234,1.086,0.121
0.313,1.094,0.16
0.633,1.227,0.168
0.625,1.363,-0.031
0.199,1.441,0.117
0.016,1.195,0.324
-0.207,1.02,0.086
0.023,1.469,0.133
0.191,1.48,0.156
0.176,1.047,0.121
0.176,0.559,-0.004
0.098,0.305,-0.051
0.094,0.234,-0.105
0.098,0.352,-0.145
0.059,0.594,-0.039
0.164,0.879,0.059
0.301,1.406,0.102
0.688,1.633,0.109
0.668,1.32,-0.023
-0.059,1.645,0.102
-0.195,1.246,0.305
-0.367,0.785,-0.141
-0.254,0.762,-0.059
0.027,1.129,0.227
0.313,1.023,0.18
0.184,0.633,0.078
-0.027,0.422,0.031
0,0.539,0.137
0.148,0.598,0.129
0.176,0.82,0.117
0.258,1.031,0.113
0.367,1.02,0.137
0.645,1.215,0.238
0.602,1.348,-0.027
0.281,1.426,0.078
-0.016,1.207,0.297
-0.262,0.941,0.043
-0.027,1.367,0.043
0.215,1.582,0.172
0.184,1.137,0.141
0.176,0.617,-0.004
0.176,0.324,-0.074
0.168,0.234,-0.105
0.164,0.313,-0.168
0.07,0.492,-0.023
0.117,0.723,-0.008
0.18,1.367,0.105
0.637,1.887,0.191
0.957,1.207,-0.074
0.145,1.387,-0.039
-0.379,1.602,0.484
-0.516,0.98,-0.023
-0.27,0.707,-0.215
0.008,0.867,0.07
0.184,1.074,0.172
0.113,0.824,0.113
-0.063,0.52,0.039
-0.035,0.594,0.109
0.211,0.641,0.141
0.328,0.73,0.078
0.348,0.91,0.117
0.305,0.973,0.027
0.512,1.141,0.148
0.672,1.352,0.063
0.406,1.492,-0.023
0.098,1.258,0.273
-0.172,0.934,0.094
0.004,1.301,0.09
0.191,1.555,0.152
0.172,1.242,0.121
0.18,0.617,-0.012
0.164,0.316,-0.063
0.164,0.25,-0.094
0.113,0.375,-0.102
0.055,0.551,-0.066
0.109,0.801,0.012
0.184,1.25,0.055
0.551,1.723,0.07
0.879,1.219,-0.121
0.254,1.477,-0.02
-0.258,1.559,0.484
-0.469,0.992,-0.043
-0.242,0.738,-0.145
0.008,0.965,0.164
0.195,1.09,0.258
0.164,0.797,0.145
-0.023,0.504,0.059
-0.047,0.559,0.098
0.125,0.598,0.191
0.328,0.695,0.117
0.328,0.902,0.055
0.289,1.012,0.078
0.543,1.164,0.203
0.609,1.359,0.129
0.473,1.484,0.027
0.191,1.297,0.23
-0.063,0.926,0.164
-0.031,1.07,0.086
0.172,1.477,0.145
0.16,1.332,0.211
0.145,0.809,0.082
0.074,0.434,-0.02
0.086,0.262,-0.098
0.133,0.316,-0.113
0.145,0.488,-0.109
0.133,0.742,0.027
0.211,1.117,0.098
0.406,1.688,0.137
0.805,1.305,-0.078
0.234,1.504,-0.016
-0.191,1.664,0.445
-0.348,0.977,-0.02
-0.254,0.75,-0.133
-0.09,0.984,0.145
0.121,1.16,0.266
0.18,0.824,0.137
-0.016,0.48,0.059
-0.027,0.52,0.09
0.129,0.602,0.176
0.355,0.645,0.109
0.355,0.84,0.063
0.242,1.051,0.066
0.387,1.094,0.184
0.621,1.348,0.156
0.566,1.418,-0.063
0.199,1.352,0.254
-0.121,1,0.203
-0.105,1.07,0.02
0.129,1.52,0.121
0.176,1.375,0.184
0.148,0.855,0.074
0.117,0.441,-0.023
0.137,0.242,-0.09
0.141,0.281,-0.105
0.113,0.43,-0.105
0.074,0.688,-0.016
0.129,1.074,0.082
0.355,1.703,0.105
0.813,1.367,-0.086
0.535,1.371,0
-0.313,1.73,0.363
-0.438,1.168,0.199
-0.324,0.715,-0.16
-0.105,0.809,0.055
0.113,1.105,0.242
0.188,0.895,0.184
0.02,0.602,0.09
-0.059,0.586,0.086
0.078,0.602,0.145
0.344,0.641,0.121
0.375,0.789,0.082
0.254,1.043,0.082
0.313,1.051,0.176
0.586,1.266,0.16
0.559,1.344,-0.043
0.223,1.367,0.172
0.027,1.098,0.332
-0.121,0.934,0.082
0.078,1.418,0.133
0.176,1.434,0.211
0.145,1.035,0.148
0.156,0.578,0.031
0.141,0.309,-0.055
0.133,0.289,-0.105
0.145,0.426,-0.094
0.09,0.66,0.023
0.105,0.953,0.074
0.195,1.453,0.117
0.641,1.457,0.047
0.586,1.277,0.012
-0.145,1.785,0.258
-0.262,1.262,0.266
-0.332,0.691,-0.219
-0.129,0.734,-0.031
0.066,1.191,0.281
0.199,1,0.207
0.066,0.637,0.086
-0.004,0.52,0.07
0.141,0.574,0.105
0.305,0.613,0.109
0.305,0.777,0.117
0.266,1.008,0.125
0.305,1.043,0.191
0.598,1.219,0.199
0.465,1.301,-0.016
0.152,1.383,0.234
0.063,1.141,0.328
-0.074,0.883,0.055
0.113,1.277,0.137
0.332,1.441,0.215
0.281,1.156,0.234
0.242,0.691,0.109
0.113,0.391,0.016
0.109,0.328,-0.035
0.129,0.523,0.039
0.117,0.648,0.133
0.152,0.922,0.102
0.145,1.188,0.082
0.316,1.352,0.035
0.602,1.055,0.105
0.008,1.469,0.242
-0.246,1.66,0.594
-0.355,0.934,-0.004
0.035,0.73,-0.051
0.246,1.355,0.344
0.41,1.234,0.313
0.285,0.758,0.094
0.063,0.543,0.047
-0.043,0.598,0.066
0.055,0.629,0.063
0.203,0.609,0.141
0.137,0.77,0.176
0.156,1.074,0.172
0.531,1.293,0.105
0.512,1.34,0.152
0.164,1.383,0.566
-0.07,1.105,0.371
-0.199,0.898,0.074
0.113,1.254,0.129
0.496,1.359,0.211
0.578,1.086,0.219
0.438,0.828,0.227
0.25,0.742,0.395
-0.031,0.664,0.551
-0.582,0.641,0.48
-0.738,0.797,0.203
-0.336,0.52,-0.105
0.266,0.672,-0.031
0.68,1.332,0.148
0.859,1.488,0.305
0.277,1.402,0.285
-0.336,1.617,0.535
-0.445,1.098,0.172
-0.203,0.664,-0.152
0.059,0.801,0.094
0.281,1.367,0.336
0.418,0.906,0.219
0.098,0.621,0.148
-0.207,0.477,0.137
-0.391,0.609,0.121
-0.148,0.797,0.207
0.129,1.043,0.27
0.387,1.359,0.434
0.539,1.309,0.445
0.41,1.277,0.203
0.031,1.223,0.184
-0.125,1.234,0.18
-0.27,1.02,0.016
0.047,1.398,0.074
0.207,1.445,0.219
0.117,1.063,0.109
0.094,0.629,0.027
0.125,0.371,0.004
0.148,0.25,-0.008
0.066,0.242,-0.047
-0.055,0.441,-0.016
-0.121,0.941,0.023
0.051,1.41,0.168
0.613,1.828,0.176
0.758,1.387,0.066
-0.141,1.566,0.129
-0.313,1.195,0.277
-0.449,0.766,-0.141
-0.289,0.883,-0.016
0.035,1.168,0.25
0.254,1.066,0.164
0.145,0.73,0.098
-0.023,0.461,0.055
-0.016,0.539,0.117
0.066,0.609,0.16
0.184,0.652,0.09
0.27,0.887,0.07
0.27,1.008,0.02
0.605,1.281,0.172
0.613,1.496,0.012
0.262,1.617,0.133
0.133,1.254,0.391
-0.137,0.867,0.066
-0.023,1.238,0.09
0.207,1.52,0.129
0.145,1.176,0.18
0.117,0.633,0.051
0.098,0.309,-0.063
0.141,0.176,-0.129
0.148,0.258,-0.172
0.105,0.527,-0.012
0.137,0.859,0.043
0.223,1.391,0.059
0.605,1.723,0.098
0.625,1.324,-0.012
-0.25,1.742,0.156
-0.207,1.164,0.266
-0.344,0.734,-0.191
-0.191,0.875,0.043
0.027,1.234,0.313
0.195,0.988,0.168
0.055,0.559,0.066
-0.074,0.434,0.066
0,0.551,0.164
0.234,0.598,0.125
0.258,0.707,0.039
0.215,1.035,0.078
0.344,1.051,0.203
0.641,1.352,0.215
0.645,1.418,-0.07
0.238,1.309,0.203
-0.082,1.121,0.254
-0.141,1.207,0.023
0.145,1.586,0.172
0.184,1.324,0.148
0.164,0.824,0.059
0.117,0.406,-0.016
0.09,0.199,-0.082
0.102,0.211,-0.082
0.133,0.406,-0.133
0.074,0.738,-0.012
0.156,1.109,0.137
0.355,1.758,0.051
0.746,1.285,-0.098
0.109,1.598,-0.047
-0.039,1.621,0.48
-0.324,0.887,-0.055
-0.258,0.773,-0.059
-0.148,1.035,0.195
0.086,1.07,0.207
0.105,0.742,0.102
-0.004,0.492,0.066
0.027,0.531,0.133
0.227,0.57,0.168
0.309,0.66,0.082
0.176,0.941,0.059
0.227,1.07,0.098
0.621,1.172,0.164
0.707,1.355,0.102
0.438,1.48,0.043
0.078,1.281,0.352
-0.133,0.969,0.125
0.043,1.371,0.082
0.219,1.574,0.188
0.18,1.188,0.188
0.156,0.625,0.035
0.07,0.285,-0.047
0.07,0.164,-0.117
0.059,0.27,-0.184
0.059,0.543,-0.043
0.168,0.871,0.004
0.32,1.316,0.07
0.738,1.836,0.113
0.668,1.363,-0.07
-0.285,1.563,-0.016
-0.316,1.125,0.191
-0.359,0.742,-0.078
-0.172,0.934,0.063
0.082,1.195,0.254
0.262,0.941,0.152
0.137,0.629,0.047
0,0.523,0.066
0.047,0.527,0.102
0.199,0.563,0.125
0.238,0.719,0.082
0.414,0.973,0.117
0.324,1.098,0.059
0.469,1.316,0.207
0.621,1.352,0.016
0.262,1.457,0.043
0.109,1.219,0.332
-0.059,0.93,-0.051
0.137,1.461,0.109
0.246,1.52,0.215
0.098,1.039,0.117
-0.016,0.551,-0.031
-0.035,0.301,-0.09
0.043,0.262,-0.078
0.207,0.34,-0.094
0.195,0.488,-0.09
0.203,0.859,0.008
0.148,1.324,0.004
0.469,1.668,-0.027
0.633,1.348,0.004
-0.34,1.746,0.031
-0.234,1.391,0.445
-0.332,0.711,-0.168
-0.199,0.84,0.008
0.016,1.207,0.285
0.238,1.07,0.207
0.125,0.688,0.074
0.023,0.434,0.031
0.066,0.477,0.094
0.188,0.551,0.152
0.238,0.695,0.113
0.238,0.953,0.098
0.383,0.977,0.012
0.508,1.105,0.16
0.605,1.41,0.098
0.441,1.617,0.043
0.18,1.383,0.383
-0.227,0.867,0.105
-0.059,1.121,0.074
0.215,1.504,0.168
0.172,1.25,0.215
0.07,0.766,0.07
0.043,0.375,-0.082
0.035,0.25,-0.113
0.109,0.328,-0.141
0.129,0.461,-0.09
0.164,0.719,-0.008
0.234,1.133,0.078
0.434,1.633,0.098
0.742,1.336,-0.063
0.012,1.684,0.074
-0.18,1.809,0.598
-0.383,0.824,-0.102
-0.293,0.645,-0.129
-0.121,1.051,0.219
0.137,1.164,0.266
0.148,0.805,0.109
-0.008,0.504,0.031
0.066,0.531,0.09
0.168,0.539,0.098
0.352,0.621,0.059
0.289,0.855,0.109
0.203,1.129,0.098
0.309,1.063,0.145
0.543,1.301,0.156
0.605,1.434,-0.031
0.191,1.445,0.234
-0.094,1.082,0.285
-0.145,0.965,-0.016
0.168,1.469,0.105
0.211,1.387,0.172
0.145,0.918,0.082
0.043,0.465,-0.027
0.09,0.219,-0.098
0.066,0.184,-0.125
0.063,0.336,-0.137
0.055,0.656,-0.023
0.191,1.066,0.059
0.547,1.711,0.113
0.949,1.41,0.016
0.297,1.426,0.09
-0.297,1.902,0.379
-0.43,1.031,0.215
-0.375,0.715,-0.18
-0.176,0.984,0.098
0.145,1.211,0.266
0.32,0.93,0.137
0.141,0.527,0.039
-0.016,0.445,0.035
0,0.527,0.133
0.223,0.582,0.129
0.277,0.676,0.008
0.184,0.941,0.035
0.273,1.07,0.168
0.578,1.289,0.16
0.605,1.383,0.02
0.387,1.586,0.176
0.102,1.215,0.324
-0.156,0.813,0.031
0.008,1.27,0.09
0.238,1.555,0.152
0.184,1.238,0.168
0.086,0.602,0.031
0.074,0.262,-0.066
0.086,0.164,-0.137
0.086,0.313,-0.148
0.051,0.539,-0.063
0.184,0.887,0.055
0.281,1.402,0.055
0.648,1.621,0.035
0.418,1.48,-0.008
-0.098,1.961,0.188
-0.18,1.059,0.176
-0.363,0.672,-0.168
-0.234,0.953,0.117
0.02,1.195,0.27
0.188,0.922,0.129
0.039,0.523,0.047
-0.012,0.438,0.066
0.09,0.527,0.117
0.223,0.625,0.113
0.316,0.75,0.082
0.246,1.027,0.07
0.277,1.055,0.082
0.582,1.184,0.164
0.566,1.473,-0.141
0.367,1.648,0.285
-0.164,1.266,0.355
-0.352,0.922,-0.051
0.039,1.488,0.074
0.191,1.488,0.195
0.09,0.953,0.133
-0.035,0.465,-0.027
0.031,0.234,-0.102
0.121,0.23,-0.117
0.211,0.316,-0.152
0.164,0.59,-0.031
0.199,0.918,0.098
0.254,1.395,0.098
0.586,1.621,0.074
0.367,1.586,0.105
-0.141,1.984,0.352
-0.203,0.996,0.168
-0.34,0.57,-0.207
-0.223,0.938,0.102
-0.008,1.262,0.301
0.164,0.969,0.16
0.047,0.543,0.035
-0.02,0.461,0.055
0.047,0.52,0.09
0.184,0.59,0.102
0.25,0.742,0.086
0.219,1.063,0.117
0.27,1.063,0.129
0.602,1.188,0.223
0.57,1.41,-0.051
0.262,1.523,0.121
-0.039,1.313,0.32
-0.293,1.063,-0.035
0.043,1.484,0.082
0.156,1.434,0.145
0.109,0.961,0.09
0.039,0.473,-0.023
0.07,0.219,-0.082
0.102,0.215,-0.102
0.125,0.328,-0.094
0.07,0.547,-0.059
0.125,0.906,0.012
0.234,1.422,0.035
0.707,1.641,0.043
0.742,1.328,0.02
-0.395,1.84,0.117
-0.273,1.32,0.402
-0.367,0.648,-0.254
-0.238,0.879,0.027
0.008,1.258,0.313
0.195,1.039,0.191
0.086,0.59,0.07
-0.035,0.457,0.066
0.004,0.457,0.086
0.199,0.527,0.164
0.332,0.648,0.063
0.254,0.961,0.113
0.266,1.125,0.063
0.527,1.211,0.16
0.566,1.383,-0.02
0.375,1.574,0.027
0.066,1.352,0.445
-0.258,0.973,0.043
-0.004,1.363,0.086
0.254,1.539,0.141
0.164,1.141,0.152
0.086,0.609,0.031
0.063,0.273,-0.055
0.109,0.164,-0.102
0.148,0.285,-0.145
0.102,0.508,-0.055
0.117,0.801,0.004
0.129,1.266,0.012
0.566,1.859,0.09
0.855,1.27,-0.02
-0.066,1.621,-0.027
-0.23,1.52,0.492
-0.438,0.828,-0.145
-0.254,0.742,-0.063
-0.012,1.082,0.25
0.184,1.047,0.227
0.121,0.652,0.102
-0.035,0.418,0.051
0.004,0.504,0.109
0.164,0.582,0.137
0.301,0.703,0.074
0.277,1.02,0.078
0.309,1.07,0.102
0.547,1.207,0.207
0.539,1.383,0.016
0.301,1.484,0.035
0.121,1.266,0.34
-0.273,0.945,0.004
-0.027,1.301,0.063
0.145,1.555,0.148
0.121,1.176,0.152
0.082,0.68,0.035
0.063,0.332,-0.047
0.121,0.223,-0.078
0.172,0.234,-0.074
0.133,0.445,-0.148
-0.016,0.82,0.035
0.238,1.262,0.164
0.637,1.77,0.121
0.891,1.355,-0.039
0.105,1.563,0.035
-0.262,1.684,0.477
-0.457,0.871,-0.07
-0.383,0.75,-0.078
-0.133,1.059,0.211
0.156,1.09,0.207
0.16,0.766,0.121
-0.043,0.469,0.039
-0.047,0.473,0.105
0.102,0.551,0.156
0.285,0.605,0.102
0.293,0.855,0.031
0.34,1.063,0.039
0.527,1.102,0.129
0.672,1.41,0.102
0.527,1.531,-0.035
0.039,1.363,0.371
-0.34,1.02,0.176
-0.176,1.078,0.012
0.148,1.535,0.168
0.203,1.344,0.203
0.172,0.848,0.059
0.102,0.391,-0.059
0.133,0.234,-0.121
0.168,0.289,-0.113
0.207,0.438,-0.055
0.156,0.68,0
0.137,1.043,0.078
0.359,1.73,0.121
0.781,1.367,-0.027
0.254,1.512,-0.031
-0.242,1.813,0.543
-0.441,1.055,0.066
-0.297,0.68,-0.164
-0.109,0.891,0.117
0.117,1.055,0.219
0.176,0.781,0.129
0.004,0.484,0.055
-0.012,0.504,0.066
0.16,0.605,0.156
0.363,0.684,0.09
0.32,0.91,0.09
0.242,1.078,0.07
0.379,1.07,0.156
0.609,1.348,0.148
0.559,1.504,-0.063
0.121,1.379,0.297
-0.227,1.059,0.219
-0.094,1.188,-0.016
0.188,1.563,0.16
0.117,1.273,0.195
0.125,0.723,0.039
0.051,0.336,-0.078
0.105,0.199,-0.121
0.137,0.266,-0.148
0.188,0.453,-0.137
0.188,0.754,-0.008
0.223,1.148,0.094
0.5,1.813,0.145
0.754,1.352,-0.078
-0.098,1.664,-0.012
-0.223,1.57,0.457
-0.426,0.844,-0.109
-0.27,0.773,-0.051
-0.043,1.09,0.242
0.176,1.059,0.238
0.129,0.66,0.105
-0.039,0.426,0.059
0.016,0.461,0.113
0.191,0.555,0.141
0.293,0.688,0.059
0.172,0.949,0.043
0.305,1.125,0.145
0.555,1.215,0.215
0.527,1.434,-0.023
0.316,1.555,0.086
0.066,1.289,0.313
-0.223,0.973,-0.008
0.004,1.398,0.094
0.164,1.582,0.266
0.074,1.043,0.145
0.008,0.473,0
0.055,0.199,-0.113
0.145,0.137,-0.148
0.227,0.27,-0.148
0.18,0.629,0.051
0.246,1.023,0.141
0.313,1.523,0.152
0.691,1.563,0.055
0.375,1.516,0.055
-0.297,1.906,0.473
-0.395,1.098,0.125
-0.371,0.688,-0.242
-0.141,0.957,0.133
0.105,1.16,0.262
0.133,0.84,0.133
-0.043,0.445,0.043
-0.07,0.445,0.078
0.07,0.543,0.168
0.285,0.598,0.051
0.285,0.801,0.063
0.246,1.07,0.047
0.449,1.125,0.156
0.727,1.406,0.102
0.473,1.566,-0.055
0.078,1.414,0.395
-0.207,1.004,0.105
-0.023,1.262,0
0.238,1.52,0.16
0.176,1.262,0.203
0.113,0.688,0.039
0.027,0.336,-0.051
0.047,0.207,-0.16
0.121,0.242,-0.168
0.219,0.402,-0.066
0.117,0.801,0.02
0.133,1.348,0.082
0.453,1.688,0.125
0.809,1.121,-0.125
-0.172,1.652,-0.07
-0.184,1.824,0.637
-0.359,0.871,-0.125
-0.109,0.684,-0.137
0.094,1.031,0.211
0.164,1.031,0.219
0.035,0.633,0.094
-0.145,0.406,0.016
-0.031,0.504,0.16
0.234,0.555,0.121
0.313,0.746,0.035
0.32,1.039,0.07
0.375,1.051,0.148
0.66,1.328,0.195
0.602,1.402,-0.063
0.137,1.395,0.168
-0.109,1.113,0.285
-0.168,1.004,-0.02
0.113,1.563,0.145
0.211,1.5,0.211
0.16,0.98,0.098
0.105,0.473,-0.016
0.129,0.238,-0.082
0.137,0.191,-0.137
0.156,0.344,-0.137
0.047,0.613,0.004
0.125,0.91,0.086
0.23,1.609,0.129
0.738,1.535,0.047
0.652,1.371,-0.012
-0.32,1.734,0.297
-0.398,1.305,0.316
-0.313,0.73,-0.188
-0.023,0.758,0
0.199,1.152,0.254
0.262,0.93,0.16
0.113,0.469,0.027
0.008,0.398,0.047
0.043,0.566,0.109
0.168,0.676,0.074
0.191,0.895,0.117
0.184,1.117,0.168
0.348,1.086,0.25
0.602,1.262,0.219
0.586,1.305,-0.098
0.262,1.234,0.195
-0.09,1.191,0.18
-0.117,1.266,0.063
0.145,1.66,0.18
0.16,1.367,0.164
0.176,0.754,0.012
0.117,0.383,-0.027
0.125,0.242,-0.031
0.16,0.328,-0.023
0.188,0.426,-0.082
0.137,0.605,-0.055
0.102,1.078,0.023
0.309,1.598,0.043
0.719,1.355,-0.113
0.418,1.391,0.035
-0.383,1.809,0.492
-0.449,1.184,0.273
-0.195,0.66,-0.211
0.078,0.941,0.141
0.285,1.219,0.34
0.277,0.898,0.195
0.027,0.563,0.059
-0.094,0.539,0.035
-0.035,0.668,0.063
0.215,0.594,0.141
0.195,0.762,0.109
0.184,1.051,0.117
0.5,0.93,0.18
0.68,1.113,0.141
0.449,1.273,0.082
-0.004,1.277,0.262
-0.027,1.184,0.344
0.043,1.195,0.047
0.242,1.453,0.242
0.316,1.289,0.242
0.328,0.945,0.164
0.246,0.598,0.074
0.207,0.523,0.078
0.152,0.637,0.125
0.063,0.715,0.172
-0.074,0.781,0.188
-0.078,0.891,0.184
0.082,1.004,0.164
0.496,0.984,0.082
0.402,1.07,0.18
-0.008,1.664,0.488
-0.23,1.555,0.402
0.105,0.664,-0.164
0.16,1.172,0.191
0.336,1.348,0.488
0.156,0.859,0.203
-0.082,0.688,0.148
-0.164,0.637,0.023
0.059,0.652,0.074
0.285,0.668,0.16
0.168,0.871,0.23
0.195,1.113,0.238
0.414,1.293,0.203
0.492,1.207,0.254
0.027,1.133,0.395
-0.164,0.898,0.344
-0.074,1.035,0.113
0.23,1.43,0.207
0.41,1.52,0.344
0.402,1.16,0.199
0.352,0.781,0.176
0.344,0.703,0.273
0.16,0.613,0.445
-0.359,0.563,0.453
-0.668,0.684,0.223
-0.414,0.688,0.012
0.043,0.789,0.016
0.367,1.148,0.035
0.691,1.449,0.094
0.422,1.391,0.137
-0.152,1.457,0.199
-0.246,1.27,0.25
-0.457,0.82,-0.109
-0.293,0.852,0.027
0.02,1.215,0.234
0.418,1.148,0.188
0.34,0.816,0.105
0.07,0.5,0.039
-0.164,0.516,0.043
-0.148,0.672,0.09
0.012,0.766,0.164
0.152,0.922,0.199
0.258,1.137,0.305
0.633,1.188,0.398
0.652,1.324,0.234
0.488,1.344,0.023
0.164,1.23,0.309
-0.313,1.074,0.145
-0.289,1.027,0
0.051,1.523,0.078
0.168,1.449,0.168
0.117,0.988,0.098
0.125,0.582,0.008
0.152,0.316,-0.047
0.133,0.246,-0.078
0.102,0.305,-0.09
0.047,0.496,-0.035
0.102,0.879,0.055
0.207,1.555,0.129
0.758,1.773,0.164
0.633,1.348,-0.008
-0.246,1.551,0.109
-0.418,1.199,0.281
-0.441,0.867,-0.129
-0.16,0.953,0.035
0.117,1.109,0.23
0.246,0.965,0.168
0.086,0.652,0.078
-0.039,0.484,0.055
-0.004,0.543,0.137
0.168,0.566,0.141
0.273,0.672,0.051
0.273,0.906,0.113
0.238,1.07,0.066
0.566,1.297,0.164
0.594,1.387,0.043
0.273,1.566,0.051
0.043,1.289,0.391
-0.156,0.863,0.031
0.008,1.293,0.078
0.184,1.504,0.16
0.137,1.184,0.176
0.113,0.664,0.035
0.055,0.332,-0.055
0.109,0.219,-0.109
0.125,0.273,-0.145
0.129,0.477,-0.074
0.098,0.805,0.051
0.113,1.195,0.152
0.324,1.711,0.164
0.883,1.324,-0.082
0.426,1.457,0.031
-0.305,1.797,0.602
-0.551,1.078,0.109
-0.344,0.707,-0.246
-0.059,0.969,0.148
0.199,1.152,0.262
0.219,0.848,0.164
-0.008,0.484,0.059
-0.063,0.445,0.043
0.086,0.5,0.145
0.266,0.582,0.074
0.297,0.859,0.102
0.352,1.063,0.086
0.422,1.098,0.188
0.582,1.355,0.172
0.461,1.492,-0.035
0.203,1.418,0.316
-0.23,1.148,0.223
-0.148,1.148,0.02
0.199,1.496,0.117
0.184,1.254,0.152
0.109,0.809,0.055
0.059,0.406,-0.02
0.07,0.27,-0.094
0.082,0.316,-0.129
0.102,0.441,-0.133
0.09,0.641,-0.063
0.16,1.035,0.086
0.328,1.563,0.078
0.848,1.441,-0.023
0.523,1.406,0.047
-0.355,1.844,0.363
-0.398,1.039,0.199
-0.379,0.66,-0.18
-0.16,0.953,0.129
0.078,1.27,0.332
0.223,0.945,0.172
0.109,0.574,0.047
0.043,0.48,0.059
0.113,0.59,0.102
0.266,0.625,0.098
0.332,0.707,0.066
0.238,0.918,0.152
0.207,1.082,0.141
0.422,1.195,0.227
0.434,1.367,0.098
0.074,1.57,0.047
0.063,1.195,0.426
-0.055,0.914,-0.035
0.113,1.48,0.125
0.242,1.516,0.227
0.152,1.18,0.168
0.035,0.68,0.043
-0.031,0.336,-0.063
0.043,0.176,-0.105
0.129,0.227,-0.16
0.117,0.414,-0.105
0.176,0.805,-0.008
0.188,1.363,0.043
0.598,1.695,0.145
0.98,1.102,-0.02
-0.059,1.406,0.02
-0.508,1.762,0.699
-0.496,1.074,0.043
-0.125,0.656,-0.207
0.117,0.941,0.211
0.156,1.133,0.316
0.098,0.758,0.121
-0.059,0.477,0.043
0.012,0.512,0.09
0.238,0.531,0.121
0.406,0.629,0.102
0.332,0.898,0.098
0.211,1.145,0.121
0.418,1.16,0.234
0.551,1.379,0.164
0.398,1.527,-0.039
0.18,1.316,0.324
-0.238,1.051,0.148
-0.133,1.309,0.098
0.199,1.609,0.133
0.176,1.199,0.156
0.141,0.668,0.047
0.109,0.324,-0.023
0.102,0.156,-0.094
0.09,0.223,-0.113
0.02,0.422,-0.117
0.059,0.691,-0.055
0.23,1.238,0.043
0.641,1.793,0.082
0.941,1.313,-0.082
0.113,1.602,-0.008
-0.367,1.738,0.578
-0.41,0.867,-0.066
-0.223,0.707,-0.117
-0.027,1.066,0.234
0.188,1.215,0.277
0.227,0.82,0.145
0.023,0.441,0.02
-0.004,0.492,0.109
0.07,0.484,0.16
0.191,0.52,0.059
0.184,0.82,0.031
0.203,1.113,0.082
0.527,1.277,0.211
0.641,1.422,0.203
0.539,1.336,-0.012
0.059,1.324,0.098
-0.031,0.973,0.172
-0.039,1.059,0.09
0.066,1.551,0.168
0.176,1.508,0.215
0.133,0.887,0.051
0.027,0.398,-0.043
0.047,0.254,-0.078
0.105,0.258,-0.094
0.188,0.406,-0.047
0.121,0.648,-0.059
0.168,1.051,0.043
0.352,1.613,0.016
0.703,1.48,-0.066
0.656,1.211,0.027
-0.422,1.66,0.176
-0.363,1.336,0.383
-0.32,0.758,-0.152
-0.109,0.75,0
0.105,1.109,0.25
0.234,0.973,0.199
0.043,0.641,0.086
-0.078,0.527,0.09
-0.039,0.57,0.137
0.207,0.566,0.141
0.313,0.652,0.086
0.297,1.004,0.031
0.281,1.137,0.125
0.539,1.242,0.191
0.551,1.344,0.023
0.25,1.57,0.039
0.074,1.219,0.344
-0.117,0.887,0.047
0.066,1.414,0.164
0.199,1.602,0.188
0.117,1.145,0.148
0.07,0.57,-0.004
0.004,0.285,-0.066
0.059,0.199,-0.109
0.152,0.285,-0.133
0.137,0.492,-0.086
0.148,0.805,0
0.223,1.309,0.078
0.605,1.762,0.066
0.828,1.273,-0.102
0.082,1.48,-0.027
-0.195,1.648,0.504
-0.391,0.938,-0.043
-0.238,0.711,-0.102
-0.078,1.02,0.207
0.156,1.094,0.234
0.145,0.738,0.117
-0.051,0.488,0.082
-0.055,0.535,0.129
0.16,0.555,0.18
0.301,0.605,0.055
0.242,0.914,0.016
0.289,1.117,0.074
0.566,1.172,0.223
0.66,1.383,0.184
0.535,1.434,-0.094
0.148,1.328,0.25
-0.223,1.055,0.18
-0.156,1.238,0.07
0.059,1.559,0.129
0.117,1.207,0.109
0.152,0.699,0
0.074,0.355,-0.047
0.133,0.219,-0.082
0.148,0.301,-0.113
0.109,0.473,-0.109
0.063,0.758,-0.047
0.152,1.191,0.086
0.477,1.707,0.074
0.84,1.309,-0.113
0.141,1.621,0.039
-0.27,1.773,0.535
-0.438,0.855,-0.117
-0.313,0.719,-0.129
-0.102,1.09,0.227
0.125,1.145,0.234
0.09,0.738,0.098
-0.094,0.461,0.059
-0.031,0.516,0.133
0.164,0.52,0.16
0.344,0.602,0.023
0.316,0.863,0.063
0.324,1.117,0.039
0.41,1.18,0.109
0.586,1.387,0.09
0.473,1.473,-0.047
0.164,1.414,0.34
-0.141,0.957,0.176
-0.043,1.223,0.055
0.152,1.512,0.156
0.164,1.27,0.176
0.141,0.766,0.055
0.059,0.414,-0.027
0.074,0.262,-0.094
0.09,0.305,-0.148
0.113,0.488,-0.051
0.078,0.738,0.008
0.129,1.141,0.086
0.367,1.664,0.086
0.781,1.328,-0.098
0.707,1.207,0.07
-0.418,1.73,0.289
-0.473,1.379,0.395
-0.363,0.738,-0.203
-0.133,0.719,0.012
0.086,1.066,0.258
0.188,0.934,0.184
0.02,0.609,0.07
-0.09,0.551,0.066
0.031,0.629,0.148
0.336,0.629,0.121
0.41,0.797,0.074
0.258,1.02,0.031
0.188,1.055,0.082
0.508,1.207,0.113
0.625,1.328,0.047
0.305,1.492,0.023
0.082,1.172,0.387
-0.125,0.891,0.094
0.043,1.395,0.137
0.133,1.469,0.188
0.09,1.09,0.148
0.086,0.602,0.031
0.051,0.332,-0.066
0.082,0.25,-0.117
0.102,0.398,-0.117
0.09,0.648,-0.039
0.152,0.914,0.047
0.277,1.316,0.063
0.602,1.648,0.047
0.824,1.172,-0.039
-0.191,1.551,0.051
-0.375,1.492,0.445
-0.414,0.871,-0.164
-0.176,0.715,-0.078
0.023,1.039,0.242
0.152,0.996,0.223
0.059,0.66,0.137
-0.094,0.477,0.09
-0.027,0.578,0.156
0.262,0.594,0.164
0.375,0.75,0.047
0.352,1.012,0.047
0.258,1.094,0.121
0.523,1.289,0.238
0.605,1.348,0.051
0.262,1.418,0
0.074,1.121,0.367
-0.129,0.934,0.09
0.051,1.477,0.164
0.113,1.527,0.211
0.082,1.063,0.148
0.133,0.563,0.016
0.094,0.262,-0.059
0.137,0.203,-0.113
0.145,0.352,-0.156
0.078,0.617,0.004
0.121,0.918,0.07
0.207,1.438,0.117
0.609,1.664,0.098
0.82,1.195,0.027
-0.285,1.676,0.129
-0.383,1.492,0.484
-0.449,0.758,-0.227
-0.227,0.746,-0.047
0.074,1.117,0.301
0.223,1.031,0.215
0.102,0.645,0.109
-0.078,0.496,0.082
-0.043,0.555,0.16
0.199,0.566,0.176
0.254,0.668,0.008
0.227,0.922,0.039
0.402,1.027,0.008
0.52,1.324,0.172
0.625,1.473,0.188
0.32,1.543,0.063
0.094,1.223,0.316
-0.238,0.84,0.148
-0.023,1.297,0.137
0.117,1.488,0.172
0.09,1.094,0.16
0.082,0.59,0.02
0.074,0.344,-0.051
0.148,0.254,-0.117
0.168,0.332,-0.164
0.094,0.59,-0.02
0.074,0.918,0.07
0.203,1.266,0.16
0.563,1.609,0.168
0.855,1.207,-0.063
0.023,1.555,0.016
-0.336,1.68,0.625
-0.496,0.887,-0.109
-0.273,0.676,-0.191
0.047,0.992,0.188
0.16,1.129,0.266
0.098,0.773,0.152
-0.074,0.477,0.055
-0.031,0.512,0.098
0.211,0.563,0.16
0.402,0.648,0.078
0.32,0.914,0.09
0.227,1.094,0.09
0.461,1.207,0.223
0.539,1.43,-0.027
0.449,1.637,0.059
0.043,1.352,0.406
-0.309,0.906,0.09
-0.02,1.211,0.055
0.262,1.5,0.113
0.098,1.164,0.176
0.039,0.676,0.039
0.016,0.336,-0.063
0.082,0.211,-0.117
0.141,0.305,-0.168
0.145,0.523,-0.074
0.18,0.789,0.027
0.258,1.258,0.098
0.555,1.707,0.148
0.785,1.227,-0.098
-0.016,1.574,-0.008
-0.242,1.719,0.582
-0.43,0.887,-0.117
-0.254,0.672,-0.152
-0.039,0.984,0.176
0.152,1.09,0.219
0.117,0.746,0.117
-0.07,0.512,0.078
-0.027,0.566,0.121
0.16,0.578,0.141
0.359,0.652,0.035
0.293,0.93,0.09
0.211,1.164,0.098
0.441,1.121,0.18
0.629,1.352,0.09
0.402,1.426,-0.086
0.113,1.293,0.336
-0.133,0.988,0.109
-0.039,1.359,0.059
0.094,1.574,0.176
0.086,1.242,0.156
0.137,0.695,0.012
0.051,0.328,-0.07
0.094,0.188,-0.105
0.109,0.281,-0.113
0.152,0.461,-0.063
0.129,0.773,-0.012
0.23,1.32,0.09
0.602,1.828,0.133
0.844,1.164,-0.105
0.168,1.34,-0.031
-0.418,1.652,0.57
-0.492,1.059,0.117
-0.27,0.762,-0.184
0.02,0.965,0.141
0.219,1.113,0.238
0.18,0.828,0.145
-0.043,0.488,0.043
-0.078,0.484,0.078
0.098,0.543,0.184
0.336,0.641,0.078
0.313,0.867,0.086
0.207,1.152,0.07
0.371,1.172,0.168
0.602,1.383,0.125
0.547,1.453,-0.066
0.18,1.266,0.266
-0.156,1.02,0.211
-0.094,1.273,0.094
0.09,1.539,0.168
0.117,1.262,0.148
0.141,0.727,0.008
0.082,0.395,-0.039
0.121,0.23,-0.113
0.188,0.289,-0.129
0.195,0.453,-0.086
0.219,0.723,0.043
0.254,1.188,0.105
0.438,1.691,0.137
0.723,1.313,-0.113
0.395,1.355,-0.082
-0.398,1.699,0.426
-0.441,1.098,0.191
-0.305,0.727,-0.121
-0.117,0.914,0.078
0.188,1.148,0.227
0.25,0.91,0.129
0.055,0.559,0.066
-0.039,0.512,0.074
0.004,0.531,0.164
0.195,0.578,0.086
0.262,0.809,0.039
0.285,1.156,0.055
0.492,1.199,0.172
0.699,1.363,0.172
0.508,1.32,-0.109
-0.004,1.191,0.102
-0.004,0.949,0.129
0.074,1.266,0.047
0.184,1.633,0.18
0.168,1.398,0.18
0.094,0.715,0.023
0.008,0.383,-0.063
0.027,0.211,-0.102
0.094,0.262,-0.102
0.148,0.445,-0.07
0.172,0.727,-0.008
0.242,1.184,0.109
0.496,1.625,0.082
0.742,1.309,-0.117
0.352,1.406,0.043
-0.348,1.871,0.34
-0.355,1.082,0.152
-0.266,0.648,-0.164
-0.129,0.895,0.086
0.129,1.152,0.258
0.23,0.906,0.148
0.055,0.559,0.063
-0.027,0.523,0.078
0.051,0.57,0.141
0.25,0.617,0.098
0.328,0.762,0.031
0.289,1.055,0.094
0.289,1.094,0.113
0.531,1.285,0.148
0.563,1.367,-0.027
0.156,1.438,0.102
0.016,1.07,0.289
-0.129,0.883,0.012
0.063,1.516,0.133
0.156,1.508,0.184
0.137,1.035,0.098
0.121,0.563,-0.004
0.113,0.316,-0.063
0.156,0.266,-0.113
0.16,0.328,-0.164
0.063,0.609,0.004
0.117,0.922,0.098
0.191,1.418,0.113
0.586,1.582,0.094
0.723,1.242,0
-0.199,1.66,0.164
-0.273,1.418,0.395
-0.367,0.766,-0.184
-0.219,0.742,-0.047
-0.023,1.059,0.242
0.145,1.02,0.199
0.051,0.672,0.09
-0.102,0.5,0.07
0.02,0.621,0.137
0.254,0.648,0.133
0.426,0.723,0.086
0.395,0.949,0.121
0.227,1.059,0.086
0.43,1.105,0.172
0.5,1.313,0.051
0.285,1.457,0.043
0.195,1.246,0.367
-0.113,0.93,0.086
-0.055,1.258,0.086
0.172,1.586,0.199
0.141,1.266,0.195
0.148,0.742,0.063
0.098,0.398,-0.039
0.125,0.273,-0.082
0.16,0.367,-0.102
0.188,0.535,-0.004
0.129,0.742,0.047
0.121,1.117,0.094
0.281,1.555,0.133
0.746,1.277,-0.02
0.395,1.184,0.113
-0.363,1.719,0.512
-0.543,1.41,0.414
-0.242,0.703,-0.281
-0.008,0.816,0.051
0.176,1.336,0.395
0.227,0.996,0.191
0.031,0.59,0.039
-0.074,0.344,-0.02
-0.039,0.523,0.031
0.191,0.68,0.027
0.387,0.773,0.051
0.418,0.98,0.188
0.27,1.148,0.148
0.453,1.277,0.109
0.277,1.27,-0.023
0.012,1.238,0.363
0.047,1.043,0.418
0.133,1.016,0.098
0.348,1.32,0.207
0.371,1.277,0.234
0.379,0.996,0.219
0.277,0.668,0.18
0.184,0.605,0.164
0.105,0.641,0.148
-0.066,0.672,0.207
-0.207,0.824,0.199
-0.172,0.891,0.18
0.004,1.129,0.125
0.406,1.023,0.027
0.508,1.035,0.098
0.207,1.508,0.309
-0.148,1.504,0.5
-0.09,0.723,0.02
-0.016,0.957,0.156
0.16,1.324,0.438
0.203,1.004,0.328
0.031,0.773,0.227
-0.086,0.648,0.141
-0.113,0.73,0.156
-0.004,0.762,0.18
0.121,0.734,0.188
0.145,0.855,0.211
0.117,1.063,0.266
0.313,1.207,0.258
0.496,1.27,0.289
0.305,1.344,0.301
0.027,1.23,0.438
-0.168,0.961,0.328
-0.211,0.836,0.141
0.09,1.242,0.184
0.266,1.363,0.297
0.25,1.152,0.277
0.168,0.742,0.145
0.105,0.613,0.125
0.066,0.598,0.113
-0.141,0.668,0.121
-0.285,0.723,0.078
-0.242,0.875,0.078
0.035,0.996,0.055
0.297,1.121,0.055
0.594,1.219,-0.012
0.684,1.27,-0.016
0.035,1.461,0.211
-0.246,1.332,0.285
-0.406,0.84,-0.148
-0.242,0.852,-0.023
-0.078,1.102,0.211
0.254,1.117,0.176
0.27,0.902,0.117
0.059,0.637,0.078
-0.082,0.574,0.063
-0.094,0.648,0.082
0.043,0.711,0.102
0.223,0.742,0.188
0.191,1.016,0.152
0.227,1.184,0.25
0.48,1.254,0.262
0.41,1.383,0.195
0.211,1.453,0.105
0.074,1.195,0.293
-0.082,0.906,0.086
-0.07,1.105,0.059
0.039,1.523,0.207
0.059,1.313,0.203
0.129,0.793,0.047
0.125,0.422,-0.051
0.16,0.246,-0.078
0.188,0.313,-0.063
0.168,0.453,0.012
0.121,0.695,0.012
0.098,1.148,0.047
0.438,1.777,0.066
0.805,1.281,-0.059
0.086,1.492,0.008
-0.246,1.668,0.582
-0.383,0.93,-0.02
-0.168,0.676,-0.102
-0.008,0.973,0.219
0.199,1.105,0.227
0.199,0.809,0.129
-0.008,0.563,0.086
-0.063,0.547,0.066
-0.008,0.57,0.113
0.18,0.664,0.09
0.145,0.875,0.148
0.145,1.141,0.121
0.504,1.121,0.223
0.613,1.313,0.211
0.582,1.344,0.137
0.094,1.293,0.09
0.063,1.074,0.258
-0.098,0.98,0.066
-0.004,1.473,0.129
0.117,1.422,0.195
0.164,1.039,0.137
0.156,0.5,-0.008
0.102,0.27,-0.086
0.109,0.281,-0.102
0.109,0.395,-0.074
0.066,0.605,0.031
0.117,0.969,0.082
0.281,1.543,0.109
0.715,1.594,0.027
0.633,1.262,0.023
-0.316,1.754,0.234
-0.309,1.215,0.281
-0.328,0.688,-0.238
-0.215,0.82,-0.012
-0.008,1.148,0.281
0.172,1,0.184
0.07,0.594,0.055
-0.031,0.496,0.078
0.051,0.617,0.152
0.246,0.641,0.145
0.34,0.773,0.117
0.246,0.996,0.047
0.23,1.031,0.109
0.531,1.223,0.16
0.535,1.324,0.043
0.211,1.41,0.016
0.113,1.16,0.395
-0.082,0.934,0.094
0.047,1.5,0.141
0.148,1.57,0.227
0.152,1.094,0.125
0.188,0.559,-0.008
0.156,0.305,-0.063
0.145,0.277,-0.086
0.098,0.414,-0.059
0.027,0.578,-0.008
0.043,0.813,0.016
0.172,1.297,0.047
0.574,1.727,0.07
0.77,1.172,-0.078
-0.063,1.625,0.012
-0.191,1.453,0.449
-0.391,0.77,-0.164
-0.285,0.816,-0.047
-0.113,1.125,0.246
0.16,1.043,0.195
0.137,0.699,0.102
-0.035,0.547,0.094
0.016,0.578,0.121
0.207,0.633,0.168
0.414,0.676,0.063
0.309,0.895,0.082
0.23,1.102,0.098
0.48,1.121,0.168
0.629,1.355,0.082
0.512,1.398,-0.055
0.125,1.266,0.25
-0.168,1.008,0.168
-0.129,1.137,0.035
0.133,1.625,0.176
0.133,1.316,0.195
0.145,0.738,0.047
0.105,0.371,-0.043
0.148,0.23,-0.109
0.16,0.281,-0.148
0.094,0.504,-0.043
0.102,0.75,0.02
0.16,1.223,0.125
0.461,1.738,0.117
0.754,1.258,-0.133
0.313,1.473,0.008
-0.324,1.695,0.527
-0.461,0.98,0.051
-0.285,0.734,-0.145
-0.055,0.922,0.133
0.145,1.078,0.227
0.156,0.805,0.137
-0.035,0.551,0.094
-0.047,0.566,0.145
0.141,0.535,0.141
0.344,0.613,-0.004
0.406,0.879,0.02
0.34,1.102,0.078
0.402,1.219,0.207
0.602,1.414,0.141
0.406,1.449,-0.063
0.102,1.297,0.324
-0.207,0.887,0.121
-0.164,1.188,0.02
0.102,1.621,0.191
0.156,1.258,0.18
0.121,0.672,0.035
0.078,0.379,-0.051
0.094,0.297,-0.086
0.125,0.422,-0.094
0.152,0.496,-0.121
0.109,0.73,-0.035
0.258,1.086,0.055
0.469,1.523,0.074
0.711,1.359,-0.074
0.285,1.617,0.035
-0.305,1.941,0.699
-0.531,0.82,-0.129
-0.371,0.605,-0.285
-0.078,0.992,0.141
0.215,1.156,0.301
0.227,0.887,0.188
0,0.445,0.059
-0.082,0.41,0.066
0.043,0.547,0.16
0.301,0.711,0.141
0.465,0.91,0.113
0.414,0.977,0.059
0.234,1.059,0.156
0.508,1.141,0.191
0.484,1.418,-0.066
0.27,1.531,0.285
-0.094,1.145,0.281
-0.234,0.957,-0.02
0.086,1.563,0.145
0.27,1.547,0.215
0.18,1.066,0.16
0.09,0.559,-0.012
0.055,0.313,-0.055
0.078,0.254,-0.082
0.145,0.305,-0.145
0.117,0.449,-0.074
0.176,0.754,0.008
0.273,1.344,0.086
0.613,1.719,0.137
0.77,1.195,-0.09
-0.047,1.488,0
-0.238,1.555,0.551
-0.406,0.91,-0.117
-0.227,0.773,-0.129
-0.02,1.043,0.203
0.191,1.109,0.234
0.164,0.77,0.129
-0.031,0.48,0.051
-0.023,0.512,0.078
0.129,0.543,0.148
0.293,0.664,0.074
0.27,0.949,0.129
0.316,1.082,0.137
0.492,1.152,0.227
0.563,1.32,0.078
0.375,1.465,-0.023
0.188,1.391,0.379
-0.32,1.121,0.164
-0.16,1.215,0.051
0.203,1.488,0.109
0.148,1.188,0.152
0.098,0.727,0.047
0.039,0.355,-0.051
0.105,0.238,-0.113
0.102,0.359,-0.125
0.094,0.488,-0.102
0.063,0.715,-0.008
0.184,1.117,0.066
0.418,1.539,0.047
0.805,1.344,-0.109
0.582,1.43,0.051
-0.375,1.879,0.461
-0.48,1.109,0.195
-0.398,0.703,-0.246
-0.145,1.012,0.121
0.16,1.25,0.316
0.195,0.965,0.148
0.012,0.496,0.012
-0.043,0.414,0.055
0.063,0.535,0.129
0.262,0.605,0.09
0.27,0.715,0.043
0.18,0.945,0.023
0.316,1.082,0.094
0.633,1.316,0.094
0.559,1.488,-0.055
0.328,1.621,0.273
-0.148,1.176,0.328
-0.25,0.906,0.016
0.031,1.371,0.133
0.211,1.41,0.168
0.16,0.938,0.094
0.063,0.5,-0.039
0.039,0.293,-0.07
0.086,0.25,-0.098
0.125,0.355,-0.137
0.102,0.637,0.039
0.223,1.016,0.051
0.328,1.453,0.047
0.625,1.512,-0.016
0.559,1.297,0.047
-0.359,1.883,0.238
-0.277,1.246,0.324
-0.352,0.68,-0.203
-0.227,0.871,0.035
0.035,1.191,0.258
0.199,0.969,0.16
0.043,0.602,0.078
-0.02,0.469,0.066
0.09,0.559,0.133
0.258,0.602,0.148
0.25,0.727,0.055
0.246,0.938,0.102
0.324,1.023,-0.008
0.48,1.207,0.141
0.543,1.406,-0.004
0.313,1.582,0.078
0.039,1.25,0.422
-0.168,0.867,0.02
0.121,1.406,0.133
0.313,1.535,0.219
0.133,1.141,0.191
0.016,0.613,0.012
-0.035,0.344,-0.082
-0.023,0.262,-0.141
0.059,0.316,-0.148
0.129,0.492,-0.035
0.207,0.789,-0.008
0.273,1.223,0.066
0.602,1.688,0.074
0.809,1.266,-0.098
0.063,1.578,0
-0.27,1.77,0.594
-0.41,0.891,-0.059
-0.27,0.672,-0.121
-0.098,0.992,0.191
0.133,1.109,0.254
0.102,0.758,0.117
-0.078,0.473,0.059
-0.012,0.531,0.121
0.125,0.57,0.176
0.355,0.656,0.078
0.371,0.867,0.043
0.297,1.059,0.059
0.398,1.086,0.137
0.539,1.348,0.137
0.523,1.438,-0.051
0.184,1.395,0.254
-0.16,0.973,0.195
-0.117,1.059,0.039
0.145,1.57,0.145
0.242,1.457,0.176
0.156,0.91,0.074
0.074,0.48,-0.035
0.086,0.285,-0.086
0.121,0.246,-0.117
0.191,0.359,-0.094
0.109,0.586,0.004
0.137,0.926,0.063
0.238,1.512,0.082
0.703,1.508,0.027
0.668,1.313,0.031
-0.223,1.781,0.195
-0.262,1.242,0.305
-0.355,0.719,-0.203
-0.234,0.863,0.035
-0.023,1.203,0.277
0.16,1.004,0.184
0.063,0.602,0.063
-0.047,0.496,0.094
0.027,0.574,0.133
0.234,0.605,0.164
0.371,0.672,0.09
0.34,0.93,0.066
0.215,1.043,0.121
0.531,1.211,0.18
0.598,1.313,0.066
0.305,1.535,0.02
0.164,1.297,0.398
-0.141,0.93,0.098
-0.016,1.332,0.121
0.141,1.551,0.16
0.117,1.246,0.18
0.121,0.711,0.027
0.055,0.418,-0.023
0.082,0.285,-0.078
0.121,0.332,-0.09
0.141,0.441,-0.078
0.113,0.656,-0.016
0.082,1.063,0.07
0.285,1.664,0.109
0.719,1.344,-0.027
-0.027,1.754,-0.055
-0.047,1.582,0.441
-0.379,0.785,-0.188
-0.211,0.844,-0.047
-0.035,1.211,0.258
0.164,1.133,0.227
0.191,0.746,0.129
0.02,0.469,0.063
-0.031,0.527,0.078
0.09,0.52,0.098
0.348,0.594,0.098
0.332,0.875,0.141
0.148,1.063,0.078
0.391,1.051,0.16
0.672,1.332,0.078
0.492,1.438,-0.023
0.25,1.414,0.34
-0.082,0.992,0.219
-0.078,0.992,0
0.152,1.449,0.063
0.203,1.426,0.148
0.074,0.961,0.059
0.031,0.559,-0.008
0.078,0.367,-0.063
0.141,0.371,-0.063
0.16,0.438,-0.117
0.098,0.527,-0.098
0.113,0.766,0.004
0.133,1.301,0.074
0.547,1.59,0.121
0.773,1.289,-0.086
0.039,1.617,0.059
-0.16,1.371,0.344
-0.367,0.793,-0.176
-0.242,0.797,-0.063
-0.016,1.152,0.23
0.234,1.207,0.289
0.199,0.828,0.105
0.012,0.527,0.047
0.023,0.582,0.098
0.133,0.594,0.137
0.254,0.668,0.113
0.195,0.828,0.105
0.078,1.031,0.09
0.355,1.039,0.223
0.52,1.25,0.172
0.402,1.383,-0.012
0.305,1.348,0.301
0.016,1.152,0.195
-0.145,1.016,0.016
0.109,1.367,0.082
0.223,1.371,0.137
0.191,1.016,0.07
0.145,0.66,-0.004
0.125,0.484,-0.051
0.176,0.457,-0.027
0.191,0.496,-0.02
0.18,0.477,-0.07
0.082,0.672,-0.074
0.023,1.066,0.07
0.219,1.484,0.172
0.762,1.238,-0.008
0.465,1.531,-0.016
-0.156,1.633,0.457
-0.348,1.02,0.031
-0.285,0.793,-0.141
-0.078,0.984,0.07
0.117,1.23,0.258
0.191,0.992,0.168
0.074,0.668,0.074
0,0.516,0.023
0.066,0.586,0.09
0.184,0.656,0.109
0.191,0.754,0.148
0.16,0.988,0.18
0.223,1.039,0.125
0.461,1.188,0.141
0.371,1.336,0.059
0.254,1.465,0.07
0.227,1.238,0.316
-0.098,0.875,0.094
-0.008,1.129,0.051
0.141,1.469,0.086
0.066,1.34,0.129
0.039,0.887,0.051
0.051,0.523,-0.039
0.145,0.367,-0.055
0.23,0.363,-0.059
0.219,0.418,-0.113
0.125,0.547,-0.152
0.121,0.957,-0.004
0.188,1.602,0.105
0.633,1.293,-0.004
0.207,1.637,-0.039
0.094,1.781,0.426
-0.27,0.84,-0.004
-0.383,0.75,-0.113
-0.199,1.113,0.176
0.137,1.273,0.227
0.324,0.965,0.109
0.148,0.57,-0.008
-0.008,0.59,0.043
-0.023,0.703,0.125
0.043,0.773,0.133
0.18,0.824,0.141
0.23,0.898,0.191
0.23,1.008,0.199
0.441,0.914,0.328
0.426,1.145,-0.012
0.121,1.414,-0.047
0.164,1.398,0.203
-0.25,1.004,-0.094
-0.016,1.242,-0.074
0.344,1.398,0.07
0.375,1.113,0.055
0.246,0.785,-0.012
0.227,0.574,-0.016
0.234,0.484,-0.016
0.223,0.484,-0.004
0.18,0.449,-0.105
0.098,0.559,-0.133
0.18,0.996,0.02
0.238,1.422,0.145
0.496,1.363,0.055
0.813,1.137,-0.086
0.43,1.305,-0.148
-0.195,1.352,0.34
-0.434,1.016,0.012
-0.258,0.723,-0.191
0.066,0.867,-0.125
0.398,1.32,0.207
0.391,1.051,0.168
0.16,0.645,0.059
0.035,0.574,0.027
0.027,0.629,0.098
0.121,0.68,0.156
0.27,0.746,0.145
0.246,0.934,0.258
0.109,1.086,0.246
0.324,1.109,0.324
0.461,1.223,0.203
0.383,1.313,0.023
0.238,1.238,0.227
-0.211,1.148,0.129
-0.277,1.035,-0.031
0.051,1.484,-0.051
0.199,1.395,0.055
0.148,0.98,0.055
0.156,0.598,0.004
0.219,0.406,-0.059
0.223,0.41,-0.023
0.23,0.445,-0.074
0.129,0.527,-0.137
0.152,0.816,-0.074
0.254,1.32,0.02
0.609,1.52,0.094
0.797,1.18,-0.07
-0.164,1.633,0.137
-0.355,1.246,0.285
-0.418,0.824,-0.219
-0.129,0.945,-0.055
0.121,1.246,0.27
0.258,1.102,0.207
0.129,0.727,0.098
-0.07,0.465,0.043
-0.098,0.535,0.102
0.066,0.578,0.156
0.266,0.586,0.113
0.148,0.855,0.102
0.078,1.137,0.133
0.535,1.223,0.148
0.504,1.41,0.059
0.453,1.598,0.152
0.254,1.281,0.441
-0.184,0.879,0.039
0,1.258,0.145
0.215,1.566,0.199
0.117,1.32,0.23
0.016,0.762,0.066
-0.031,0.332,-0.066
0.051,0.172,-0.094
0.105,0.254,-0.133
0.074,0.41,-0.098
0.008,0.727,-0.043
0.074,1.211,0.063
0.43,1.738,0.055
0.922,1.305,-0.102
0.305,1.363,0.039
-0.434,1.691,0.535
-0.496,1.043,0.016
-0.18,0.676,-0.176
0.098,1.07,0.223
0.227,1.297,0.359
0.207,0.883,0.16
-0.027,0.43,0.031
-0.105,0.426,0.035
0.02,0.531,0.137
0.172,0.609,0.109
0.16,0.887,0.141
0.238,1.148,0.113
0.605,1.121,0.238
0.645,1.246,0.184
0.453,1.332,-0.059
0.246,1.27,0.293
-0.211,1.164,0.285
-0.219,1.18,0.082
0.023,1.586,0.137
0.156,1.344,0.156
0.156,0.906,0.074
0.133,0.516,-0.016
0.137,0.305,-0.07
0.145,0.266,-0.059
0.148,0.309,-0.113
0.059,0.512,-0.047
-0.012,0.977,0.066
0.168,1.629,0.18
0.734,1.578,0.07
0.789,1.328,0.004
-0.098,1.586,0.191
-0.438,1.191,0.258
-0.457,0.773,-0.195
-0.129,0.887,0.023
0.164,1.293,0.324
0.297,1.082,0.223
0.156,0.66,0.078
-0.02,0.398,0.027
-0.066,0.555,0.113
0.066,0.598,0.125
0.223,0.621,0.09
0.223,0.898,0.109
0.305,1.09,0.195
0.563,1.188,0.148
0.469,1.348,0.105
0.313,1.469,0.188
0.141,1.207,0.473
-0.203,0.969,0.148
0.035,1.242,0.09
0.309,1.461,0.199
0.219,1.242,0.266
0.238,0.824,0.125
0.133,0.488,0.055
0.148,0.379,0.02
0.113,0.402,0.027
0.012,0.488,0.09
-0.047,0.785,0.125
-0.004,1.039,0.141
0.238,1.383,0.125
0.496,1.199,0.109
-0.148,1.578,0.289
-0.125,1.52,0.566
-0.164,0.797,-0.09
0.148,0.777,0.016
0.258,1.703,0.523
0.309,1.184,0.363
0.113,0.695,0.141
-0.016,0.504,0.09
-0.074,0.563,0.082
0.047,0.629,0.145
0.262,0.676,0.141
0.18,0.758,0.188
0.043,0.996,0.281
0.316,1.285,0.219
0.508,1.301,0.285
0.148,1.145,0.207
-0.184,0.922,0.418
0.066,1.172,0.211
0.352,1.516,0.234
0.488,1.445,0.395
0.461,1.098,0.23
0.391,0.84,0.32
0.238,0.785,0.418
-0.098,0.641,0.617
-0.441,0.543,0.555
-0.57,0.563,0.246
-0.332,0.648,-0.016
0.078,0.934,-0.074
0.43,1.363,0.078
0.512,1.5,0.18
0.184,1.281,0.207
-0.246,1.414,0.262
-0.285,1.047,0.09
-0.234,0.816,-0.086
-0.086,0.977,0.113
0.098,1.297,0.328
0.293,1.027,0.238
0.176,0.715,0.125
-0.031,0.527,0.09
-0.172,0.598,0.113
-0.082,0.641,0.145
-0.027,0.691,0.207
-0.012,0.945,0.148
0.313,1.051,0.242
0.547,1.309,0.184
0.363,1.563,0.355
0.598,1.535,0.309
0.281,1.23,0.285
-0.164,0.871,0.172
-0.156,0.832,0.105
0.023,1.418,0.148
0.102,1.441,0.281
-0.031,0.996,0.164
-0.039,0.5,-0.031
0.031,0.301,-0.07
0.113,0.293,-0.078
0.137,0.398,-0.051
0.105,0.656,0.051
0.098,1.063,0.059
0.227,1.547,0.055
0.668,1.52,0.031
0.406,1.438,0.098
-0.223,1.73,0.359
-0.363,0.957,0.09
-0.34,0.707,-0.152
-0.125,0.984,0.137
0.125,1.262,0.332
0.273,0.934,0.168
0.105,0.531,0.063
-0.023,0.453,0.059
-0.031,0.531,0.125
0.121,0.602,0.133
0.098,0.777,0.113
0.051,1.043,0.039
0.395,1.051,0.172
0.68,1.387,0.195
0.648,1.457,0.129
0.242,1.344,0.137
-0.102,1.047,0.254
-0.18,1.023,0.035
0.082,1.582,0.129
0.211,1.5,0.219
0.133,1.004,0.117
0.086,0.52,-0.012
0.086,0.234,-0.07
0.113,0.195,-0.094
0.117,0.324,-0.129
0.023,0.539,-0.031
0.113,0.875,0.043
0.242,1.488,0.051
0.719,1.668,0.059
0.801,1.219,-0.059
-0.348,1.73,0.105
-0.379,1.387,0.406
-0.449,0.738,-0.227
-0.211,0.816,-0.027
0.047,1.191,0.313
0.199,1.109,0.227
0.105,0.641,0.063
-0.047,0.391,0.023
-0.008,0.539,0.137
0.188,0.594,0.168
0.336,0.656,0.066
0.211,0.938,0.012
0.203,1.094,0.07
0.586,1.207,0.102
0.605,1.395,0.094
0.313,1.563,0.02
0.145,1.242,0.414
-0.141,0.879,0.066
-0.008,1.438,0.109
0.176,1.555,0.219
0.113,1.156,0.16
0.121,0.617,0.016
0.063,0.332,-0.047
0.109,0.227,-0.105
0.129,0.277,-0.145
0.082,0.473,-0.074
0.066,0.805,0.047
0.148,1.27,0.145
0.492,1.746,0.195
0.852,1.328,-0.047
-0.023,1.551,0.027
-0.363,1.652,0.547
-0.523,0.867,-0.133
-0.297,0.691,-0.152
0.004,1.07,0.254
0.176,1.16,0.27
0.141,0.773,0.109
-0.023,0.473,0.059
-0.012,0.496,0.094
0.172,0.582,0.199
0.352,0.645,0.027
0.254,0.852,0.047
0.133,1.086,0.023
0.359,1.16,0.172
0.688,1.316,0.172
0.613,1.516,0
0.23,1.316,0.297
-0.148,0.984,0.219
-0.109,1.223,0.063
0.07,1.578,0.191
0.066,1.32,0.188
0.109,0.781,0.055
0.063,0.41,-0.043
0.082,0.215,-0.098
0.121,0.273,-0.117
0.117,0.445,-0.125
0.074,0.664,-0.02
0.168,1,0.066
0.402,1.746,0.105
0.887,1.578,0.02
0.664,1.313,0.055
-0.621,1.621,0.344
-0.66,1.305,0.285
-0.367,0.672,-0.227
-0.012,0.762,0.035
0.234,1.152,0.301
0.273,0.984,0.191
0.137,0.508,0.027
0,0.43,0.055
0.027,0.582,0.188
0.215,0.617,0.109
0.207,0.793,0.074
0.207,0.996,0.035
0.359,1.102,0.141
0.609,1.34,0.188
0.543,1.5,-0.023
0.246,1.438,0.273
-0.168,1.074,0.281
-0.168,1.012,0.043
0.082,1.59,0.148
0.172,1.473,0.242
0.121,0.863,0.082
0.066,0.422,-0.027
0.102,0.207,-0.098
0.145,0.234,-0.113
0.137,0.371,-0.148
0.043,0.641,0.008
0.129,0.98,0.074
0.406,1.645,0.109
0.813,1.527,0.016
0.41,1.48,0.043
-0.461,1.879,0.484
-0.453,1.055,0.109
-0.332,0.605,-0.211
-0.105,0.941,0.148
0.133,1.215,0.297
0.191,0.867,0.145
0.027,0.477,0.063
-0.012,0.469,0.094
0.105,0.559,0.223
0.277,0.598,0.07
0.191,0.797,0.004
0.219,1.012,0.051
0.422,1.098,0.133
0.656,1.367,0.152
0.57,1.543,0.039
0.215,1.477,0.301
-0.223,1.023,0.176
-0.164,1.051,0.004
0.172,1.598,0.16
0.223,1.398,0.242
0.172,0.82,0.086
0.098,0.375,-0.059
0.086,0.172,-0.125
0.098,0.234,-0.129
0.102,0.402,-0.102
0.098,0.664,-0.012
0.184,1.121,0.086
0.375,1.777,0.156
0.848,1.453,0
0.473,1.281,-0.023
-0.457,1.691,0.363
-0.492,1.199,0.207
-0.352,0.77,-0.203
-0.086,0.824,0.059
0.117,1.121,0.273
0.168,0.887,0.152
-0.02,0.516,0.074
-0.055,0.453,0.07
0.078,0.594,0.172
0.305,0.676,0.129
0.371,0.863,0.055
0.281,1.008,0.012
0.383,1.152,0.137
0.617,1.348,0.16
0.551,1.469,-0.066
0.164,1.363,0.281
-0.168,1.012,0.223
-0.059,1.133,0.016
0.113,1.488,0.195
0.133,1.324,0.203
0.129,0.832,0.066
0.047,0.434,-0.051
0.043,0.246,-0.129
0.074,0.27,-0.145
0.074,0.379,-0.145
0.055,0.688,0.09
0.234,1.086,0.105
0.449,1.625,0.137
0.766,1.504,-0.012
0.84,1.125,0.051
-0.359,1.527,0.141
-0.566,1.57,0.508
-0.438,0.828,-0.168
-0.129,0.711,-0.094
0.125,1.027,0.238
0.199,1.051,0.227
0.055,0.691,0.086
-0.078,0.477,0.035
0,0.582,0.156
0.238,0.578,0.188
0.363,0.676,0.043
0.371,0.941,0.023
0.277,1.07,0.004
0.465,1.27,0.152
0.582,1.363,0.066
0.301,1.52,0.012
0.086,1.191,0.336
-0.09,0.836,0.051
0.086,1.344,0.129
0.258,1.512,0.191
0.168,1.156,0.152
0.102,0.578,-0.012
0.023,0.32,-0.09
0.035,0.273,-0.117
0.148,0.406,-0.121
0.156,0.559,-0.059
0.246,0.82,0.008
0.297,1.297,0.023
0.648,1.641,0
0.891,1.129,-0.094
-0.082,1.477,-0.043
-0.5,1.762,0.641
-0.488,0.965,0.027
-0.137,0.668,-0.137
0.082,0.992,0.191
0.199,1.113,0.281
0.176,0.77,0.148
0.012,0.473,0.031
-0.035,0.473,0.074
0.156,0.582,0.137
0.352,0.582,0.098
0.238,0.91,0.051
0.227,1.18,0.148
0.5,1.223,0.219
0.512,1.273,0.055
0.375,1.395,-0.031
0.145,1.297,0.348
-0.285,1.066,0.105
-0.043,1.273,0.008
0.223,1.598,0.168
0.145,1.316,0.238
0.078,0.77,0.055
0.023,0.406,-0.043
0.07,0.254,-0.094
0.129,0.27,-0.121
0.16,0.402,-0.152
0.098,0.648,-0.016
0.195,1.133,0.094
0.438,1.727,0.145
0.773,1.402,-0.066
0.359,1.512,0.004
-0.344,1.793,0.48
-0.516,1.016,0.047
-0.387,0.676,-0.176
-0.121,0.93,0.141
0.16,1.141,0.266
0.207,0.852,0.137
0.016,0.488,0.035
-0.016,0.469,0.066
0.117,0.582,0.148
0.266,0.68,0.043
0.305,0.922,0.074
0.277,1.031,0.047
0.375,1.102,0.109
0.648,1.313,0.137
0.566,1.457,-0.059
0.168,1.395,0.273
-0.184,0.988,0.223
-0.125,1.082,0.004
0.078,1.48,0.145
0.121,1.383,0.184
0.09,0.84,0.055
0.031,0.445,-0.043
0.063,0.289,-0.105
0.125,0.293,-0.121
0.168,0.434,-0.113
0.129,0.68,0.004
0.219,1.051,0.098
0.344,1.602,0.105
0.66,1.457,-0.039
0.531,1.355,0.016
-0.48,1.832,0.363
-0.484,1.246,0.293
-0.352,0.633,-0.234
-0.133,0.777,0.043
0.105,1.141,0.266
0.199,0.961,0.176
0.094,0.582,0.059
0.035,0.469,0.059
0.016,0.543,0.117
0.094,0.672,0.125
0.336,0.816,0.109
0.504,0.949,0.031
0.258,1.07,0.059
0.484,1.258,0.188
0.578,1.387,-0.027
0.219,1.586,0.141
-0.102,1.152,0.336
-0.082,0.875,-0.055
0.141,1.371,0.082
0.207,1.484,0.164
0.125,1.055,0.102
0.047,0.535,-0.035
0,0.316,-0.113
0.031,0.223,-0.141
0.18,0.359,-0.098
0.188,0.559,-0.02
0.258,0.902,0.02
0.277,1.508,0.109
0.75,1.664,0.082
0.668,1.293,-0.004
-0.461,1.73,0.086
-0.434,1.328,0.395
-0.422,0.676,-0.262
-0.145,0.82,-0.039
0.098,1.195,0.258
0.203,1.027,0.211
0.109,0.609,0.059
0.016,0.461,0.055
0.074,0.531,0.121
0.277,0.609,0.145
0.383,0.703,0.078
0.254,0.93,0.039
0.184,1.051,0.109
0.52,1.211,0.18
0.59,1.359,-0.004
0.379,1.516,0.051
0.066,1.25,0.371
-0.207,0.938,0.121
-0.078,1.359,0.09
0.164,1.578,0.172
0.117,1.168,0.184
0.137,0.625,0.012
0.07,0.324,-0.063
0.07,0.254,-0.105
0.125,0.387,-0.129
0.137,0.527,-0.07
0.16,0.797,-0.008
0.188,1.289,0.055
0.57,1.746,0.094
0.895,1.145,-0.113
0.227,1.227,-0.023
-0.648,1.664,0.523
-0.676,1.262,0.262
-0.277,0.707,-0.219
0.07,0.855,0.063
0.223,1.109,0.262
0.188,0.891,0.191
0.012,0.535,0.047
-0.023,0.512,0.059
0.078,0.617,0.156
0.234,0.672,0.125
0.242,0.871,0.07
0.266,1.035,0.039
0.52,1.047,0.117
0.664,1.301,0.117
0.523,1.41,-0.031
0.121,1.426,0.207
-0.09,1.055,0.305
-0.078,0.996,0.047
0.16,1.508,0.156
0.207,1.383,0.188
0.098,0.887,0.102
0.02,0.488,-0.016
-0.004,0.309,-0.113
0.047,0.289,-0.145
0.156,0.449,-0.082
0.148,0.652,0.016
0.211,1.035,0.086
0.301,1.516,0.082
0.605,1.504,-0.047
0.699,1.188,0.094
-0.348,1.766,0.215
-0.395,1.457,0.477
-0.418,0.668,-0.215
-0.297,0.699,-0.027
0.004,1.063,0.27
0.219,1.035,0.207
0.125,0.66,0.066
0.008,0.488,0.027
0.043,0.57,0.098
0.203,0.602,0.141
0.344,0.711,0.063
0.281,0.984,0.043
0.262,1.105,0.078
0.477,1.172,0.133
0.504,1.363,0.004
0.277,1.48,0.023
0.082,1.305,0.348
-0.211,0.914,0.078
-0.039,1.266,0.063
0.18,1.527,0.152
0.191,1.219,0.145
0.109,0.715,0.02
0.031,0.414,-0.051
0.094,0.289,-0.078
0.152,0.344,-0.105
0.094,0.488,-0.074
0.082,0.766,0
0.168,1.156,0.078
0.441,1.633,0.09
0.664,1.293,-0.148
0.141,1.605,-0.012
-0.121,1.563,0.461
-0.383,0.859,-0.086
-0.25,0.793,-0.066
-0.043,1.035,0.188
0.176,1.125,0.234
0.207,0.809,0.113
0.02,0.527,0.047
-0.039,0.551,0.078
0.047,0.688,0.156
0.258,0.699,0.125
0.262,0.84,0.078
0.188,1.051,0.07
0.297,1.016,0.121
0.469,1.152,0.09
0.348,1.344,-0.047
0.258,1.348,0.32
-0.055,1.176,0.258
-0.094,1.223,0.063
0.109,1.633,0.168
0.16,1.422,0.195
0.141,0.891,0.059
0.078,0.492,-0.023
0.07,0.293,-0.086
0.113,0.285,-0.082
0.098,0.383,-0.109
0.023,0.547,-0.055
0.035,0.965,0.031
0.145,1.5,0.113
0.602,1.531,0.113
0.824,1.176,-0.059
-0.059,1.465,0.039
-0.309,1.418,0.426
-0.484,0.934,-0.09
-0.289,0.785,-0.105
-0.016,1.109,0.23
0.215,1.164,0.285
0.164,0.809,0.129
-0.031,0.5,0.043
-0.031,0.527,0.063
0.133,0.621,0.16
0.316,0.691,0.113
0.309,0.887,0.121
0.191,1.066,0.109
0.32,1.086,0.164
0.52,1.227,0.148
0.535,1.207,0.02
0.262,1.234,0.121
0.074,1.082,0.27
-0.113,1.059,0.133
0.008,1.516,0.148
0.121,1.527,0.195
0.098,1.09,0.133
0.141,0.656,0.004
0.129,0.426,-0.051
0.148,0.375,-0.066
0.137,0.395,-0.086
0.066,0.492,-0.066
0.027,0.734,-0.031
0.031,1.242,0.059
0.465,1.668,0.156
0.801,1.227,-0.059
0.313,1.344,-0.035
-0.367,1.492,0.383
-0.523,1.039,0.059
-0.262,0.813,-0.121
0.031,0.977,0.121
0.199,1.172,0.281
0.176,0.914,0.172
-0.004,0.617,0.082
-0.031,0.547,0.047
0.043,0.641,0.145
0.238,0.664,0.145
0.305,0.777,0.113
0.234,1.02,0.09
0.277,1.059,0.152
0.523,1.25,0.145
0.477,1.238,0.016
0.242,1.359,0.105
0.156,1.133,0.293
-0.078,0.902,0.086
0.012,1.309,0.086
0.152,1.563,0.172
0.094,1.27,0.18
0.098,0.762,0.047
0.094,0.461,-0.051
0.125,0.328,-0.07
0.152,0.383,-0.066
0.145,0.473,-0.105
0.043,0.719,-0.031
0.063,1.176,0.051
