------------ Data File Created By ActiGraph GT3X+ ActiLife v6.13.4 Firmware v1.9.2 date format yyyy-MM-dd at 30 Hz  -----------
Serial Number: MOS2E28230210
Start Time 11:48:00
Start Date 2025-10-10
Epoch Period (hh:mm:ss) 00:00:00
Download Time 12:19:19
Download Date 2025-10-10
Current Memory Address: 0
Current Battery Voltage: 4.19     Mode = 12
--------------------------------------------------
Accelerometer X,Accelerometer Y,Accelerometer Z
-0.008,1.004,-0.246
-0.012,0.965,-0.262
-0.004,0.965,-0.254
0.004,0.961,-0.266
0.004,0.965,-0.262
0.004,0.957,-0.254
0.008,0.949,-0.262
0.004,0.965,-0.262
0.008,0.965,-0.254
0.004,0.957,-0.266
0.004,0.965,-0.27
0.004,0.953,-0.258
0.008,0.965,-0.258
0.012,0.965,-0.258
0.016,0.961,-0.262
0.012,0.965,-0.254
0.012,0.973,-0.258
0.004,0.973,-0.25
0.004,0.961,-0.262
0.004,0.957,-0.258
-0.008,0.965,-0.258
0,0.973,-0.254
-0.004,0.961,-0.254
0.004,0.965,-0.254
0.008,0.965,-0.258
0.008,0.965,-0.25
0.008,0.965,-0.254
0.004,0.961,-0.254
0.008,0.965,-0.25
0.008,0.965,-0.254
0.004,0.973,-0.262
0.004,0.961,-0.258
0.004,0.961,-0.254
0.004,0.965,-0.258
0.012,0.953,-0.254
0.016,0.961,-0.254
0.012,0.965,-0.254
0.012,0.961,-0.254
-0.004,0.965,-0.254
0.012,0.98,-0.242
0.039,0.957,-0.195
0.027,0.973,-0.227
0.02,0.984,-0.219
0.012,0.984,-0.219
-0.012,0.98,-0.227
-0.02,0.973,-0.223
-0.016,0.965,-0.23
-0.008,0.965,-0.227
0.012,0.969,-0.223
0.02,0.969,-0.223
0.012,0.969,-0.234
0,0.977,-0.246
0.012,0.961,-0.238
0.023,0.965,-0.234
0.023,0.973,-0.23
0.023,0.977,-0.23
0.023,0.961,-0.223
0.023,0.977,-0.223
0.012,0.98,-0.227
0.008,0.965,-0.223
0.004,0.969,-0.227
0.004,0.973,-0.227
0.016,0.969,-0.219
0.012,0.977,-0.223
0.027,0.973,-0.215
0.02,0.973,-0.219
0.008,0.969,-0.215
0.004,0.973,-0.223
0.004,0.969,-0.223
0.016,0.965,-0.219
0.027,0.973,-0.219
0.027,0.969,-0.215
0.023,0.969,-0.215
0.012,0.969,-0.219
0.012,0.969,-0.223
0.02,0.98,-0.223
0.02,0.973,-0.223
0.012,0.977,-0.223
0.016,0.973,-0.211
0.023,0.973,-0.211
0.016,0.977,-0.211
0.023,0.98,-0.199
0.02,0.98,-0.203
0.012,0.973,-0.207
0.02,0.984,-0.207
0.023,0.973,-0.203
0.016,0.977,-0.207
0.016,0.973,-0.211
0.008,0.969,-0.207
0.008,0.969,-0.215
-0.004,0.984,-0.211
0.02,0.973,-0.203
0.023,0.98,-0.195
0.016,0.973,-0.203
0.008,0.977,-0.207
-0.004,0.973,-0.215
0,0.98,-0.219
0.012,0.98,-0.219
0.02,0.965,-0.215
0.02,0.965,-0.219
0.02,0.98,-0.211
0.027,0.984,-0.215
0.031,0.969,-0.203
0.02,0.969,-0.203
0.023,0.973,-0.203
0.023,0.98,-0.207
0.016,0.973,-0.215
0,0.98,-0.215
0.004,0.969,-0.215
-0.004,0.973,-0.219
0.012,0.977,-0.211
0.023,0.973,-0.211
0.023,0.965,-0.215
0.012,0.969,-0.219
-0.004,0.977,-0.227
0,0.969,-0.227
0.031,0.965,-0.23
0.043,0.961,-0.207
0.016,0.965,-0.223
-0.004,0.977,-0.219
-0.012,0.992,-0.219
-0.004,0.969,-0.215
-0.008,0.977,-0.195
0.02,0.977,-0.195
0.023,0.969,-0.188
0.008,0.977,-0.191
-0.012,0.98,-0.203
-0.012,0.977,-0.199
-0.012,0.977,-0.203
0,0.969,-0.203
0.008,0.977,-0.203
0.016,0.98,-0.203
0.02,0.98,-0.211
0.012,0.98,-0.211
-0.004,0.969,-0.219
0,0.98,-0.207
0.008,0.98,-0.18
0.008,0.988,-0.195
-0.008,0.961,-0.227
0.012,0.957,-0.211
0.02,0.969,-0.184
0.02,0.973,-0.199
-0.008,0.969,-0.199
-0.004,0.988,-0.191
-0.004,0.984,-0.211
0.004,0.969,-0.199
-0.004,0.977,-0.215
0.004,0.973,-0.211
-0.012,0.965,-0.242
-0.02,0.988,-0.246
-0.008,0.98,-0.258
0.004,0.941,-0.27
-0.008,0.949,-0.285
-0.016,0.949,-0.297
-0.031,0.938,-0.328
-0.02,0.93,-0.332
-0.012,0.922,-0.355
-0.023,0.926,-0.367
-0.027,0.93,-0.379
-0.027,0.918,-0.387
-0.031,0.914,-0.395
-0.035,0.926,-0.402
-0.043,0.902,-0.406
-0.031,0.898,-0.418
-0.043,0.91,-0.426
-0.035,0.91,-0.426
-0.039,0.898,-0.426
-0.047,0.902,-0.434
-0.047,0.902,-0.43
-0.039,0.883,-0.43
-0.043,0.895,-0.434
-0.039,0.895,-0.438
-0.043,0.898,-0.434
-0.035,0.902,-0.43
-0.043,0.895,-0.426
-0.047,0.898,-0.426
-0.035,0.902,-0.426
-0.031,0.895,-0.426
-0.043,0.895,-0.43
-0.043,0.895,-0.426
-0.043,0.906,-0.43
-0.051,0.902,-0.438
-0.047,0.891,-0.43
-0.043,0.895,-0.434
-0.039,0.898,-0.426
-0.035,0.898,-0.426
-0.039,0.898,-0.426
-0.039,0.91,-0.438
-0.039,0.902,-0.43
-0.043,0.902,-0.43
-0.043,0.898,-0.43
-0.023,0.891,-0.43
-0.035,0.906,-0.445
-0.043,0.879,-0.453
-0.043,0.891,-0.461
-0.039,0.887,-0.477
-0.031,0.859,-0.496
-0.039,0.852,-0.496
-0.039,0.852,-0.523
-0.035,0.824,-0.543
-0.043,0.836,-0.551
-0.039,0.816,-0.57
-0.039,0.797,-0.59
-0.043,0.789,-0.609
-0.047,0.777,-0.613
-0.047,0.766,-0.625
-0.055,0.766,-0.637
-0.047,0.777,-0.641
-0.027,0.758,-0.645
-0.039,0.738,-0.641
-0.051,0.754,-0.652
-0.043,0.75,-0.676
-0.031,0.73,-0.668
-0.035,0.727,-0.664
-0.023,0.734,-0.676
-0.031,0.727,-0.668
-0.035,0.738,-0.664
-0.027,0.75,-0.68
-0.023,0.738,-0.648
-0.035,0.738,-0.641
-0.035,0.738,-0.645
-0.043,0.781,-0.637
-0.039,0.781,-0.625
-0.02,0.773,-0.582
-0.027,0.816,-0.582
-0.023,0.84,-0.555
-0.023,0.844,-0.484
-0.039,0.895,-0.453
-0.031,0.898,-0.426
-0.027,0.93,-0.348
-0.02,0.941,-0.328
-0.012,0.945,-0.32
-0.031,0.965,-0.266
-0.008,0.949,-0.234
-0.016,0.926,-0.168
0.004,0.934,-0.184
-0.016,1.012,-0.18
0.008,0.965,-0.152
-0.008,0.988,-0.16
-0.004,0.98,-0.164
0,0.996,-0.16
-0.008,0.977,-0.172
0,0.98,-0.156
0.008,0.973,-0.156
0.004,0.977,-0.172
0.008,0.988,-0.168
0.023,0.984,-0.168
0.027,0.969,-0.172
0.012,0.984,-0.176
0.012,0.984,-0.168
0,0.988,-0.137
-0.008,0.984,-0.137
-0.023,0.988,-0.121
-0.023,0.984,-0.129
-0.02,0.996,-0.125
0.008,1,-0.117
0.008,0.988,-0.113
-0.008,0.988,-0.125
-0.008,0.992,-0.117
0,0.988,-0.121
-0.02,1.016,-0.125
0.031,0.957,-0.133
-0.004,0.992,-0.129
0.023,1,-0.109
-0.02,0.996,-0.145
-0.004,0.984,-0.148
0.027,0.988,-0.113
0.016,0.988,-0.109
-0.016,0.992,-0.137
-0.02,0.98,-0.133
0,0.988,-0.117
-0.016,0.969,-0.141
-0.008,0.98,-0.168
0.051,0.996,-0.145
0.063,0.988,-0.117
0.008,0.992,-0.125
-0.043,0.992,-0.133
-0.051,0.988,-0.121
-0.012,0.977,-0.113
0.008,0.977,-0.129
0.023,0.992,-0.121
0.02,0.992,-0.121
0.012,0.98,-0.129
-0.004,0.992,-0.125
-0.008,0.988,-0.121
-0.012,0.996,-0.121
-0.004,0.98,-0.121
-0.004,0.984,-0.117
-0.004,0.984,-0.125
0,0.988,-0.121
-0.008,0.988,-0.125
-0.008,0.992,-0.125
-0.023,0.992,-0.133
-0.02,0.992,-0.129
-0.012,0.977,-0.125
-0.008,0.988,-0.125
0,0.992,-0.133
-0.008,0.988,-0.125
-0.012,0.992,-0.125
-0.016,0.992,-0.129
-0.016,0.996,-0.125
-0.027,0.988,-0.125
-0.016,0.984,-0.121
-0.012,0.984,-0.125
-0.008,0.992,-0.121
-0.008,0.992,-0.133
-0.004,0.988,-0.125
-0.012,0.988,-0.133
-0.008,0.988,-0.133
-0.004,0.984,-0.125
-0.004,0.98,-0.125
-0.004,0.988,-0.141
-0.012,0.984,-0.137
-0.004,0.984,-0.133
-0.012,0.984,-0.133
-0.012,1,-0.137
-0.012,0.992,-0.137
-0.008,0.988,-0.141
-0.012,0.984,-0.137
-0.004,0.984,-0.137
0,0.992,-0.129
0,0.984,-0.129
-0.004,0.984,-0.133
-0.004,0.984,-0.137
-0.016,0.984,-0.137
-0.012,0.988,-0.137
-0.004,0.988,-0.133
0.008,0.98,-0.129
-0.008,0.992,-0.133
-0.008,0.984,-0.137
-0.004,1,-0.145
0,0.988,-0.141
0,0.988,-0.137
0.008,0.988,-0.137
0.004,0.992,-0.129
0.008,0.988,-0.133
0.008,0.984,-0.129
0,0.992,-0.137
0.008,0.988,-0.141
0.008,0.98,-0.141
0.012,0.984,-0.133
0.004,0.992,-0.133
0.004,0.98,-0.133
0.004,0.984,-0.133
-0.008,0.992,-0.137
-0.004,1,-0.137
-0.004,0.988,-0.145
0.008,0.977,-0.137
0.008,0.988,-0.129
0.004,0.984,-0.133
-0.012,0.988,-0.137
0,0.98,-0.133
0.008,0.984,-0.121
0.004,0.984,-0.129
0.012,0.98,-0.133
0.016,0.992,-0.129
0.008,0.992,-0.133
0.008,0.984,-0.137
0,0.984,-0.129
-0.012,0.988,-0.129
-0.008,0.988,-0.133
0.004,0.98,-0.125
0.008,0.988,-0.133
0.008,0.992,-0.137
0.02,0.98,-0.125
0.008,0.992,-0.125
0.008,0.988,-0.129
0.004,0.988,-0.137
0.012,0.984,-0.129
0.008,0.984,-0.133
0.008,0.988,-0.129
0.012,0.98,-0.137
-0.004,0.984,-0.129
0.004,0.984,-0.125
0.004,0.992,-0.133
0.016,1,-0.125
0.023,0.98,-0.129
0.02,0.996,-0.121
0.02,0.988,-0.133
0.02,0.98,-0.129
0.016,0.992,-0.137
0.012,0.992,-0.125
0.012,0.988,-0.133
0.008,0.984,-0.125
0.008,0.992,-0.137
0.008,0.992,-0.133
0.012,0.988,-0.125
0.008,0.992,-0.125
0.02,0.988,-0.121
0.012,0.984,-0.129
0.008,1,-0.125
-0.004,0.992,-0.129
0,0.988,-0.137
-0.004,0.98,-0.137
0.012,0.992,-0.137
0.023,0.992,-0.137
0.023,0.992,-0.125
0.02,0.984,-0.117
0.023,0.992,-0.105
-0.02,0.965,-0.129
-0.039,0.988,-0.125
-0.016,1.008,-0.109
0,0.941,-0.137
-0.027,0.977,-0.152
0.004,1.012,-0.109
0.008,0.961,-0.152
-0.016,0.969,-0.152
0.012,0.996,-0.121
-0.004,0.98,-0.148
-0.012,0.992,-0.133
0.004,0.996,-0.094
0,0.988,-0.109
0,0.988,-0.086
0.012,1.008,-0.066
0.012,1,-0.063
0.012,0.996,-0.043
0.012,1.012,-0.02
-0.008,1.008,-0.023
-0.008,1.008,-0.012
-0.016,0.996,-0.016
-0.012,1.004,-0.012
-0.004,1.008,-0.008
0.008,0.996,-0.008
0.008,1.004,-0.004
0,0.996,-0.008
-0.012,0.996,-0.004
-0.012,1,-0.012
-0.02,0.992,-0.016
-0.023,1,0
-0.016,0.992,-0.008
0.047,0.988,-0.016
0.055,0.98,-0.004
-0.023,1.027,-0.023
0.008,0.992,-0.027
-0.027,0.984,-0.023
-0.016,1.008,-0.031
0.035,0.992,-0.043
0.023,0.988,-0.059
-0.012,0.996,-0.074
-0.012,0.996,-0.078
0.004,0.992,-0.074
-0.004,0.988,-0.082
-0.008,0.988,-0.07
-0.004,1.008,-0.074
0.012,0.992,-0.078
0.02,0.977,-0.074
0.016,0.992,-0.051
0.023,0.984,-0.078
0.004,0.996,-0.059
0.02,0.98,-0.055
-0.004,1,-0.059
0.02,1.016,-0.055
0.016,0.984,-0.055
0.004,0.953,-0.078
0.016,1.016,-0.078
0,1.012,-0.098
0.02,0.961,-0.133
0.023,0.977,-0.148
0.016,1,-0.16
0.012,0.984,-0.18
0,0.992,-0.219
0.004,0.973,-0.238
0.012,0.945,-0.27
0.012,0.945,-0.309
-0.012,0.941,-0.344
-0.02,0.934,-0.363
0.016,0.891,-0.398
0.004,0.902,-0.43
-0.027,0.906,-0.457
0.012,0.875,-0.465
0.004,0.844,-0.484
-0.012,0.855,-0.516
-0.004,0.836,-0.504
0,0.832,-0.523
-0.012,0.848,-0.523
-0.008,0.852,-0.512
0,0.84,-0.504
-0.012,0.855,-0.52
-0.02,0.859,-0.512
-0.016,0.859,-0.5
-0.012,0.875,-0.516
-0.008,0.852,-0.508
-0.012,0.855,-0.504
-0.008,0.855,-0.504
-0.004,0.855,-0.512
-0.008,0.855,-0.508
-0.008,0.852,-0.508
-0.012,0.848,-0.508
-0.012,0.852,-0.508
-0.012,0.844,-0.52
0,0.844,-0.508
-0.004,0.844,-0.516
-0.008,0.848,-0.516
-0.012,0.852,-0.512
-0.012,0.855,-0.512
-0.004,0.863,-0.512
-0.008,0.855,-0.512
0,0.852,-0.508
0.004,0.852,-0.508
0.012,0.848,-0.512
-0.004,0.852,-0.512
-0.008,0.855,-0.508
-0.004,0.855,-0.508
0.004,0.848,-0.523
0.008,0.848,-0.516
0.008,0.844,-0.523
0.004,0.848,-0.523
0.004,0.84,-0.527
0,0.844,-0.531
0.008,0.832,-0.527
0.008,0.84,-0.539
0,0.84,-0.547
-0.004,0.824,-0.547
0.012,0.82,-0.543
0.02,0.824,-0.559
0.008,0.809,-0.559
0.004,0.824,-0.559
0.008,0.82,-0.555
0.02,0.828,-0.559
0.012,0.824,-0.559
0.012,0.828,-0.551
0.02,0.828,-0.551
0.023,0.828,-0.559
0.012,0.832,-0.551
0.023,0.824,-0.543
0.02,0.84,-0.555
0.008,0.828,-0.547
0.012,0.82,-0.555
0.012,0.828,-0.555
0.008,0.828,-0.555
0.012,0.832,-0.551
0.016,0.82,-0.547
0.012,0.816,-0.559
0.02,0.832,-0.551
0.016,0.824,-0.547
0.012,0.824,-0.555
0.012,0.816,-0.555
0.008,0.824,-0.551
0.02,0.832,-0.555
0,0.824,-0.555
0.004,0.832,-0.551
0.02,0.824,-0.547
0.016,0.828,-0.555
0,0.828,-0.547
0.008,0.832,-0.551
0.016,0.828,-0.551
0.004,0.828,-0.555
0.016,0.828,-0.551
0.016,0.832,-0.547
0.008,0.82,-0.555
0.004,0.824,-0.551
0.012,0.832,-0.555
0.016,0.82,-0.547
0,0.824,-0.555
0.008,0.816,-0.547
0.012,0.836,-0.551
0.012,0.824,-0.559
-0.004,0.816,-0.555
0.004,0.824,-0.555
0.012,0.832,-0.559
0.012,0.824,-0.555
0.012,0.82,-0.551
0.012,0.824,-0.559
0.016,0.813,-0.563
0.004,0.82,-0.559
0.016,0.813,-0.555
0.012,0.816,-0.563
0.008,0.82,-0.563
0.016,0.816,-0.559
0.008,0.82,-0.559
0.012,0.82,-0.563
0.008,0.82,-0.563
0.008,0.82,-0.555
-0.008,0.82,-0.57
0.012,0.809,-0.563
0.008,0.809,-0.563
0.004,0.813,-0.563
0.008,0.82,-0.574
0.027,0.805,-0.563
0.023,0.805,-0.57
0.008,0.824,-0.578
0.012,0.809,-0.563
0.023,0.805,-0.566
0.016,0.816,-0.559
0.016,0.824,-0.563
0.02,0.832,-0.559
0.02,0.82,-0.559
0.012,0.82,-0.559
0.023,0.824,-0.559
0.023,0.816,-0.559
0.02,0.813,-0.563
0.016,0.816,-0.566
0.02,0.816,-0.559
0.02,0.816,-0.563
0.016,0.816,-0.563
0.016,0.813,-0.559
0.012,0.82,-0.566
0.02,0.813,-0.559
0.016,0.82,-0.563
0.02,0.816,-0.559
0.02,0.824,-0.563
0.02,0.82,-0.559
0.02,0.816,-0.559
0.02,0.816,-0.566
0.023,0.809,-0.559
0.012,0.824,-0.559
0.016,0.82,-0.559
0.02,0.809,-0.563
0.012,0.82,-0.566
0.012,0.813,-0.566
0.008,0.816,-0.563
0.02,0.809,-0.566
0.016,0.82,-0.566
0.012,0.813,-0.574
0.012,0.809,-0.563
0.008,0.828,-0.566
0.016,0.809,-0.566
0.012,0.809,-0.563
0.012,0.824,-0.563
0.008,0.813,-0.563
0.012,0.813,-0.566
0.008,0.82,-0.566
0.004,0.813,-0.563
0.004,0.805,-0.566
0.008,0.816,-0.563
0.004,0.82,-0.559
0.004,0.813,-0.57
0,0.824,-0.563
0.008,0.816,-0.566
0.012,0.813,-0.566
0.012,0.82,-0.566
0.012,0.809,-0.57
0.004,0.809,-0.566
-0.004,0.82,-0.57
0.008,0.813,-0.57
0.004,0.813,-0.563
0.008,0.809,-0.574
-0.004,0.813,-0.574
0.008,0.809,-0.574
0.016,0.805,-0.563
0.012,0.813,-0.578
0,0.809,-0.566
0.004,0.809,-0.566
0.004,0.805,-0.574
0,0.809,-0.566
0.004,0.816,-0.574
0.008,0.813,-0.563
0.008,0.813,-0.57
0,0.805,-0.574
0.004,0.813,-0.559
0,0.816,-0.566
0,0.813,-0.57
0,0.82,-0.566
-0.008,0.813,-0.563
0.012,0.813,-0.563
0.008,0.816,-0.563
0.004,0.82,-0.559
0.008,0.82,-0.559
0.012,0.824,-0.566
0.012,0.82,-0.555
0.012,0.84,-0.57
0.004,0.824,-0.559
-0.004,0.824,-0.563
-0.004,0.816,-0.574
-0.004,0.813,-0.559
0.012,0.813,-0.559
-0.004,0.816,-0.563
0.008,0.809,-0.559
0.02,0.813,-0.555
0.012,0.809,-0.559
0.008,0.813,-0.563
0.008,0.813,-0.559
0.008,0.82,-0.559
0.008,0.813,-0.566
0.023,0.813,-0.563
0.016,0.84,-0.57
0.012,0.813,-0.57
0.02,0.805,-0.563
0.016,0.82,-0.574
0.008,0.816,-0.59
0.012,0.793,-0.586
0.016,0.789,-0.586
0.004,0.793,-0.602
0,0.793,-0.613
0.004,0.781,-0.613
0.016,0.77,-0.621
0.012,0.773,-0.633
0.02,0.758,-0.633
0.023,0.754,-0.625
0.027,0.77,-0.633
0.023,0.777,-0.637
0.027,0.766,-0.633
0.031,0.766,-0.629
0.027,0.754,-0.629
0.027,0.77,-0.625
0.023,0.773,-0.625
0.031,0.773,-0.602
0.027,0.773,-0.574
0.035,0.789,-0.531
0.047,0.871,-0.512
0.035,0.934,-0.352
-0.047,0.68,-0.164
0.047,1.016,-0.18
0.066,0.98,-0.156
0.063,1.02,-0.172
0.07,0.973,-0.164
0.078,0.977,-0.164
0.07,0.973,-0.16
0.051,0.98,-0.156
0.055,0.988,-0.156
0.059,0.977,-0.137
0.039,0.98,-0.133
0.047,0.992,-0.121
0.047,0.988,-0.117
0.066,0.984,-0.109
0.063,0.992,-0.109
0.055,0.992,-0.102
0.059,1,-0.098
0.059,0.992,-0.102
0.047,0.969,-0.105
0.086,1.027,-0.09
0.078,0.988,-0.098
0.027,0.973,-0.086
0.047,0.992,-0.109
0.031,0.996,-0.109
0.055,0.984,-0.113
0.043,0.984,-0.121
0.055,0.992,-0.125
0.063,1.027,-0.156
0.094,0.992,-0.152
0.113,0.996,-0.168
0.145,1,-0.168
0.156,0.969,-0.195
0.137,0.961,-0.172
0.109,0.949,-0.168
0.082,0.969,-0.188
0.055,0.988,-0.168
0.012,0.953,-0.195
-0.012,0.914,-0.164
-0.008,0.957,-0.191
0.023,0.996,-0.199
0.043,0.977,-0.207
0.043,0.941,-0.211
0.047,0.93,-0.227
0.055,0.926,-0.238
0.055,0.914,-0.234
0.043,0.922,-0.25
0.039,0.91,-0.273
0.047,0.926,-0.266
0.047,0.926,-0.266
0.051,0.941,-0.281
0.047,0.953,-0.238
0.043,1.012,-0.25
0.059,0.996,-0.227
0.082,1.039,-0.188
0.094,1.109,-0.18
0.105,1,-0.09
0.078,0.895,-0.055
0.074,0.953,-0.043
0.09,1,-0.004
0.082,1,0.008
0.07,0.996,0.008
0.063,1,0.008
0.059,0.996,-0.012
0.031,1,0.012
0.02,1,0
0.008,0.996,-0.008
0,1.023,0
-0.023,1.035,-0.008
-0.027,1.004,-0.004
-0.027,1.008,0.012
-0.02,1.008,0
-0.004,0.992,0.016
0.016,1.012,-0.004
0.039,0.988,-0.02
0.039,1.004,-0.02
0.055,1.016,-0.027
0.031,0.992,-0.051
0,0.984,-0.066
0.023,0.98,-0.09
0.027,0.992,-0.113
0.027,0.98,-0.113
0.023,0.98,-0.109
0.02,0.984,-0.121
0.023,0.98,-0.133
0.012,0.98,-0.152
0.004,0.984,-0.137
-0.004,0.988,-0.133
-0.012,0.984,-0.141
-0.035,0.992,-0.148
-0.035,0.969,-0.16
-0.027,0.98,-0.156
-0.023,0.977,-0.152
-0.016,0.977,-0.156
-0.004,0.98,-0.145
-0.004,0.992,-0.148
0.008,0.977,-0.145
0.023,0.988,-0.148
0.035,0.984,-0.141
0.051,0.988,-0.133
0.055,0.98,-0.141
0.039,0.984,-0.141
0.027,0.996,-0.145
0.031,0.973,-0.141
0.031,0.98,-0.133
0.02,0.98,-0.145
0.008,0.992,-0.137
-0.004,0.988,-0.133
-0.035,0.996,-0.133
-0.043,0.984,-0.133
-0.023,1.004,-0.129
-0.012,0.992,-0.117
0.012,0.98,-0.109
0.023,0.988,-0.109
0.023,0.992,-0.105
0.027,0.988,-0.105
0.02,0.988,-0.102
0.016,0.992,-0.09
0,0.973,-0.086
-0.035,1.012,-0.098
-0.004,0.98,-0.066
0.02,1,-0.094
0.063,0.969,-0.082
0.094,0.996,-0.059
0.059,0.984,-0.121
0.027,1.016,-0.098
0.02,1.012,-0.074
0.016,0.977,-0.094
-0.008,0.992,-0.086
0.004,0.992,-0.094
0.047,0.996,-0.082
0.07,1,-0.082
0.051,0.992,-0.086
0.016,0.988,-0.078
-0.012,0.984,-0.078
-0.016,0.988,-0.105
-0.016,0.996,-0.098
-0.012,0.969,-0.098
0.008,0.988,-0.082
0.027,1.016,-0.094
0.047,0.969,-0.082
0.039,0.977,-0.09
0.039,1.016,-0.082
0.047,0.984,-0.09
0.051,0.977,-0.086
0.047,0.992,-0.086
0.039,1.012,-0.086
0.063,0.98,-0.082
0.055,0.984,-0.074
0.059,0.984,-0.082
0.121,0.875,-0.156
0.031,0.965,0.012
0.016,1.094,-0.02
0.02,0.965,-0.035
0.035,0.953,-0.098
0.059,1.012,-0.066
0.063,0.988,-0.078
0.055,1.004,-0.082
0.074,0.977,-0.082
0.078,0.98,-0.09
0.09,0.973,-0.094
0.09,0.91,-0.039
0.027,1.098,0.031
0,0.891,-0.09
0.063,0.949,-0.027
0.074,0.98,-0.047
0.082,0.965,-0.035
0.074,0.984,-0.047
0.059,0.98,-0.059
0.063,1.008,-0.051
0.082,0.988,-0.059
0.113,1,-0.059
0.129,0.984,-0.078
0.102,0.98,-0.09
0.102,0.816,0.219
0.063,0.855,-0.137
0.078,1.207,0.082
0.125,0.969,0.023
0.164,0.988,0.016
0.156,0.914,-0.043
0.094,0.965,-0.035
0.09,1.012,-0.035
0.07,0.977,-0.047
0.086,0.992,-0.02
0.141,1.004,-0.031
0.18,1.031,-0.027
0.172,0.992,-0.043
0.141,0.965,-0.043
0.113,0.977,-0.039
0.121,0.98,-0.027
0.121,1.004,-0.035
0.145,0.992,-0.023
0.172,0.945,-0.027
0.148,0.934,-0.035
0.113,1.004,-0.035
0.082,1.023,-0.043
0.066,0.969,-0.047
0.063,1,-0.031
0.094,0.996,-0.023
0.145,0.945,-0.027
0.113,0.988,-0.051
0.102,1.016,-0.059
0.145,0.98,-0.047
0.152,0.973,-0.039
0.148,0.984,-0.039
0.141,0.988,-0.02
0.121,0.98,-0.02
0.129,0.98,-0.023
0.137,1.02,-0.016
0.152,0.98,-0.027
0.145,0.957,-0.043
0.133,0.992,-0.023
0.117,0.996,-0.043
0.102,0.953,-0.047
0.109,0.98,-0.031
0.121,1.027,-0.031
0.121,0.973,-0.031
0.125,0.973,-0.023
0.141,0.984,-0.012
0.152,0.977,-0.027
0.156,0.969,-0.023
0.156,1.004,-0.027
0.16,0.98,-0.027
0.148,0.969,-0.023
0.137,0.969,-0.031
0.133,0.977,-0.027
0.125,1,-0.027
0.129,0.969,-0.031
0.129,0.984,-0.035
0.152,0.977,-0.031
0.148,0.988,-0.02
0.145,0.992,-0.027
0.137,0.98,-0.023
0.133,0.969,-0.023
0.125,0.984,-0.027
0.133,0.988,-0.023
0.125,0.973,-0.027
0.117,0.98,-0.027
0.121,0.988,-0.031
0.137,0.992,-0.031
0.152,0.992,-0.035
0.16,0.984,-0.035
0.141,0.984,-0.031
0.109,0.988,-0.031
0.109,0.973,-0.039
0.148,0.992,-0.02
0.141,0.969,-0.027
0.148,0.965,-0.043
0.164,0.996,-0.043
0.148,0.992,-0.043
0.125,0.984,-0.047
0.113,0.977,-0.027
0.094,0.988,-0.035
0.094,0.992,-0.027
0.117,0.977,-0.023
0.137,0.973,-0.02
0.137,0.977,-0.02
0.156,0.984,-0.027
0.152,0.992,-0.016
0.145,0.992,-0.027
0.133,0.98,-0.02
0.117,0.965,-0.031
0.121,0.977,-0.031
0.129,0.992,-0.031
0.129,0.996,-0.039
0.133,0.973,-0.043
0.137,0.965,-0.027
0.125,0.996,-0.027
0.141,1,-0.016
0.121,0.945,-0.016
0.117,0.984,-0.008
0.133,0.992,-0.031
0.121,0.996,-0.027
0.125,0.953,-0.043
0.117,1,-0.039
0.121,0.992,-0.039
0.125,0.992,-0.031
0.109,0.957,-0.027
0.105,0.996,-0.027
0.086,0.996,-0.023
0.09,0.992,-0.016
0.137,0.969,-0.012
0.18,0.984,0
0.18,0.98,-0.016
0.176,0.98,-0.023
0.164,0.969,-0.031
0.137,0.988,-0.035
0.102,0.992,-0.035
0.09,0.996,-0.031
0.082,0.969,-0.027
0.094,0.996,-0.031
0.102,0.988,-0.035
0.129,0.977,-0.027
0.125,0.969,-0.02
0.109,0.977,-0.043
0.109,0.992,-0.031
0.117,0.988,-0.039
0.121,0.988,-0.035
0.113,0.984,-0.031
0.109,0.98,-0.047
0.109,0.988,-0.047
0.105,0.996,-0.043
0.098,0.988,-0.047
0.094,0.988,-0.051
0.109,0.996,-0.047
0.121,0.984,-0.047
0.109,0.977,-0.047
0.094,0.984,-0.043
0.07,1.004,-0.047
0.086,0.98,-0.031
0.074,0.973,-0.043
0.074,0.969,-0.043
0.066,0.996,-0.055
0.09,0.996,-0.055
0.117,0.98,-0.059
0.117,0.98,-0.047
0.105,0.98,-0.043
0.102,0.984,-0.051
0.109,0.977,-0.051
0.102,0.953,-0.074
0.078,1.039,-0.055
0.09,0.98,-0.082
0.082,0.992,-0.07
0.074,0.992,-0.066
0.078,0.988,-0.066
0.031,0.969,-0.039
0.047,0.973,-0.055
0.07,1.008,-0.059
0.027,0.992,-0.066
0.012,0.984,-0.059
0.031,0.996,-0.063
0.063,0.969,-0.059
0.098,0.973,-0.074
0.094,0.992,-0.051
0.082,1.012,-0.074
0.086,0.984,-0.066
0.09,0.98,-0.059
0.102,0.992,-0.063
0.098,0.996,-0.043
0.094,0.992,-0.051
0.094,0.98,-0.047
0.063,0.988,-0.055
0.035,0.988,-0.047
0.023,0.988,-0.051
0.039,0.984,-0.043
0.074,0.977,-0.063
0.102,0.977,-0.055
0.117,0.992,-0.055
0.051,1.004,-0.059
0.039,0.996,-0.055
0.051,0.992,-0.051
0.094,0.969,-0.035
0.121,0.98,-0.031
0.129,0.996,-0.047
0.133,0.977,-0.051
0.098,0.98,-0.063
0.07,1.039,-0.039
0.039,0.992,-0.055
0.074,1.004,-0.051
0.047,0.973,-0.055
0.094,0.965,-0.09
0.051,1.035,0.191
0.047,1.121,-0.121
0.07,0.984,-0.023
0.047,0.977,-0.027
0.074,0.988,-0.035
0.07,0.98,-0.02
0.078,0.992,-0.047
0.086,0.977,-0.051
0.102,0.977,-0.07
0.078,0.988,-0.07
0.098,1,-0.07
0.145,0.98,-0.066
0.09,1,-0.059
0.117,0.977,-0.055
0.102,1.012,-0.035
0.09,0.973,-0.043
0.082,0.98,-0.051
0.051,0.996,-0.066
0.082,0.977,-0.059
0.066,1.008,-0.039
0.066,0.992,-0.066
0.066,0.965,-0.047
0.07,0.98,-0.051
0.109,0.996,-0.066
0.102,0.996,-0.063
0.113,0.977,-0.063
0.105,0.992,-0.063
0.09,0.996,-0.063
0.113,0.984,-0.063
0.141,0.969,-0.078
0.094,0.98,-0.078
0.09,0.973,-0.082
0.074,0.98,-0.102
0.09,0.988,-0.047
0.129,1.004,-0.066
0.094,0.969,-0.059
0.082,1.023,-0.047
0.082,0.961,-0.023
0.086,0.965,-0.063
0.07,1.027,-0.039
0.09,0.992,-0.047
0.066,0.988,-0.051
0.086,0.992,-0.043
0.066,0.977,-0.047
0.039,0.984,-0.074
0.063,1.016,-0.063
0.098,0.98,-0.051
0.09,0.988,-0.059
0.09,0.996,-0.039
0.102,1,-0.051
0.082,0.992,-0.066
0.082,0.988,-0.07
0.121,0.977,-0.051
0.086,0.984,-0.047
0.059,1.016,-0.074
0.074,0.965,-0.07
0.074,0.977,-0.063
0.066,0.988,-0.059
0.059,0.969,-0.047
0.035,0.992,-0.063
0.094,1.004,-0.047
0.129,0.984,-0.039
0.129,0.973,-0.063
0.09,0.992,-0.078
0.098,0.988,-0.059
0.102,1.008,-0.051
0.102,1,-0.051
0.086,0.938,-0.055
0.059,0.992,-0.063
0.039,1.008,-0.051
0.023,1.008,-0.07
0.047,0.973,-0.082
0.113,0.969,-0.051
0.117,0.977,-0.07
0.105,1.012,-0.055
0.102,0.992,-0.039
0.098,0.961,-0.023
0.059,0.98,-0.063
0.07,0.984,-0.059
0.078,1,-0.051
0.078,1.016,-0.047
0.082,1,-0.023
0.117,0.973,-0.023
0.09,0.973,-0.055
0.09,1.012,-0.051
0.07,0.988,-0.063
0.074,0.992,-0.051
0.059,0.988,-0.059
0.055,0.992,-0.074
0.094,0.992,-0.039
0.094,0.945,-0.051
0.129,0.98,-0.039
0.113,1.004,-0.059
0.082,1.008,-0.063
0.082,0.973,-0.051
0.082,0.988,-0.047
0.078,0.992,-0.055
0.078,0.996,-0.051
0.066,0.969,-0.047
0.078,1,-0.047
0.098,0.98,-0.047
0.109,0.992,-0.035
0.121,0.98,-0.059
0.113,1,-0.051
0.102,0.992,-0.055
0.105,1,-0.047
0.078,0.965,-0.051
0.059,0.953,-0.055
0.039,0.996,-0.051
0.031,0.992,-0.051
0.016,1.008,-0.051
0.02,0.988,-0.059
0.02,0.988,-0.051
0.047,1.012,-0.055
0.086,1.004,-0.059
0.063,0.984,-0.047
0.051,0.977,-0.051
0.168,0.988,-0.059
0.121,0.969,-0.035
0.184,0.953,-0.047
0.145,0.996,-0.055
0.137,0.965,-0.027
0.086,0.949,-0.016
0.063,1.051,0.016
0.023,1.113,-0.051
0.047,0.961,-0.047
0.027,0.898,-0.09
0.094,0.973,-0.055
0.145,1.043,-0.051
0.105,0.98,-0.078
0.105,1,-0.055
0.09,1,-0.051
0.027,0.988,-0.051
0.02,0.992,-0.051
0.027,0.977,-0.035
0.027,0.992,-0.039
0.035,0.992,-0.063
0.039,0.965,-0.055
0.059,1.047,-0.055
0.051,1.004,-0.063
0.031,0.988,-0.066
0.023,0.988,-0.07
0.008,0.988,-0.078
0,0.984,-0.066
0.016,0.992,-0.074
0.035,0.992,-0.063
0.047,0.984,-0.07
0.051,0.988,-0.059
0.051,0.988,-0.059
0.055,0.988,-0.055
0.078,0.969,-0.066
0.063,0.996,-0.063
0.043,0.996,-0.063
0.055,0.984,-0.07
0.059,0.984,-0.063
0.074,1,-0.063
0.098,0.984,-0.059
0.086,0.992,-0.063
0.043,1.004,-0.066
0.02,0.992,-0.063
0.039,0.973,-0.059
0.047,0.988,-0.059
0.063,0.996,-0.063
0.07,0.992,-0.051
0.082,0.992,-0.059
0.07,0.988,-0.051
0.078,1.023,-0.043
0.078,0.98,-0.059
0.063,0.984,-0.066
0.039,1,-0.078
0.035,0.988,-0.07
0.023,0.984,-0.078
0.039,0.973,-0.094
0.023,0.992,-0.063
0.027,1,-0.066
0.047,0.961,-0.063
0.043,0.992,-0.059
0.066,0.992,-0.059
0.074,1,-0.07
0.066,0.98,-0.074
0.051,1,-0.07
0.047,0.996,-0.078
0.047,0.988,-0.074
0.043,0.988,-0.078
0.055,0.996,-0.07
0.047,1,-0.074
0.059,0.992,-0.078
0.059,0.984,-0.078
0.07,0.988,-0.07
0.082,0.996,-0.063
0.066,0.996,-0.063
0.051,0.977,-0.07
0.059,0.977,-0.07
0.047,1,-0.055
0.031,0.992,-0.074
0.027,0.988,-0.066
0.043,0.988,-0.063
0.043,0.973,-0.066
0.074,1.016,-0.07
0.082,0.996,-0.07
0.086,0.984,-0.074
0.09,0.98,-0.078
0.094,0.992,-0.082
0.078,0.984,-0.102
0.051,1.031,-0.07
0.051,0.977,-0.082
0.035,0.988,-0.063
0.039,0.984,-0.078
0.059,1.004,-0.066
0.051,0.965,-0.07
0.043,0.977,-0.063
0.051,0.992,-0.066
0.063,0.98,-0.078
0.039,0.996,-0.059
0.051,1.008,-0.074
0.059,0.984,-0.074
0.059,0.984,-0.078
0.059,1,-0.059
0.051,0.984,-0.074
0.031,0.977,-0.066
0.031,1.012,-0.074
0.059,0.984,-0.07
0.094,0.973,-0.051
0.09,0.98,-0.066
0.07,1.004,-0.059
0.066,1,-0.066
0.039,0.992,-0.066
0.063,0.98,-0.063
0.078,0.98,-0.059
0.074,1,-0.055
0.059,0.988,-0.074
0.059,0.988,-0.063
0.031,0.996,-0.074
0.031,0.977,-0.074
0.047,0.992,-0.074
0.063,0.984,-0.07
0.055,0.992,-0.082
0.055,0.992,-0.086
0.055,0.996,-0.09
0.047,0.973,-0.086
0.035,0.977,-0.082
0.016,1.004,-0.074
0.012,0.988,-0.07
-0.004,1,-0.078
-0.004,0.977,-0.09
0.027,0.988,-0.078
0.078,0.992,-0.082
0.09,0.977,-0.086
0.082,0.984,-0.082
0.02,0.961,-0.105
-0.02,1.016,-0.105
-0.027,1.004,-0.098
0,0.996,-0.094
0.051,0.969,-0.078
0.137,0.996,-0.082
0.035,0.957,-0.086
0.027,0.996,-0.098
0.055,0.992,-0.098
0.035,1.008,-0.109
0,0.949,-0.094
0.004,1.02,-0.102
0.016,1.004,-0.074
0.059,1.016,-0.066
0.02,1.016,-0.078
0.031,0.969,-0.09
0.047,0.977,-0.082
0.043,0.98,-0.094
0.004,0.926,-0.113
-0.016,1.016,-0.082
-0.023,0.992,-0.09
0.02,1.066,-0.082
0.047,1.016,-0.082
0.043,1.027,-0.102
-0.031,0.965,-0.113
-0.07,0.953,-0.109
-0.004,0.988,-0.07
0.016,0.961,-0.066
0.039,0.977,-0.082
0.055,1.004,-0.078
0.055,1,-0.078
0.035,0.961,-0.082
0.066,0.988,-0.086
0.09,1.02,-0.082
0.063,1.008,-0.074
0.047,0.984,-0.082
0.027,0.992,-0.086
0.008,0.914,-0.078
0,1.008,-0.07
0.004,1.008,-0.086
-0.008,0.988,-0.094
0.008,0.984,-0.082
0.004,1,-0.066
0.02,0.988,-0.105
0.035,0.988,-0.082
0.023,0.984,-0.086
0.047,0.949,-0.125
0.027,0.984,-0.098
0.008,1,-0.098
-0.004,0.977,-0.078
-0.008,1,-0.086
-0.016,0.973,-0.086
0.012,0.984,-0.105
0.035,0.996,-0.09
0.027,0.992,-0.121
0.012,0.945,-0.121
-0.004,1.008,-0.113
0.02,0.996,-0.098
0.012,0.992,-0.09
-0.004,0.992,-0.102
-0.004,0.988,-0.09
-0.008,0.984,-0.094
-0.012,1.004,-0.09
0,1.004,-0.098
0.016,0.973,-0.113
0.023,0.965,-0.113
0.016,1.008,-0.078
0.023,1.004,-0.102
0.016,0.98,-0.113
-0.004,0.992,-0.102
-0.012,1,-0.09
-0.012,0.984,-0.141
-0.004,0.957,-0.117
0.016,1.055,-0.16
-0.016,0.992,-0.074
0.004,1,-0.117
0.035,1.004,-0.129
0,1.051,-0.137
0,0.984,-0.113
-0.012,0.98,-0.152
-0.023,0.977,-0.215
-0.027,0.961,-0.227
-0.02,0.965,-0.227
-0.023,0.969,-0.266
-0.016,0.934,-0.285
-0.023,0.953,-0.277
-0.035,0.949,-0.297
-0.039,0.949,-0.293
-0.039,0.945,-0.297
-0.047,0.957,-0.293
-0.043,0.945,-0.293
-0.039,0.945,-0.297
-0.039,0.961,-0.285
-0.039,0.945,-0.293
-0.031,0.941,-0.293
-0.035,0.957,-0.285
-0.043,0.957,-0.301
-0.035,0.953,-0.289
-0.047,0.945,-0.293
-0.039,0.938,-0.297
-0.043,0.953,-0.293
-0.047,0.961,-0.297
-0.027,0.945,-0.301
-0.035,0.949,-0.313
-0.023,0.957,-0.305
-0.027,0.945,-0.313
-0.035,0.945,-0.309
-0.02,0.934,-0.316
-0.031,0.934,-0.324
-0.027,0.922,-0.324
-0.031,0.949,-0.344
-0.031,0.934,-0.352
-0.031,0.922,-0.348
-0.031,0.93,-0.344
-0.016,0.941,-0.355
-0.023,0.945,-0.352
-0.027,0.93,-0.352
-0.027,0.938,-0.352
-0.031,0.945,-0.348
-0.02,0.934,-0.348
-0.027,0.938,-0.332
-0.023,0.934,-0.324
-0.031,0.934,-0.328
-0.031,0.938,-0.305
-0.043,0.941,-0.305
-0.043,0.965,-0.285
-0.02,0.965,-0.238
-0.008,0.977,-0.199
-0.004,0.984,-0.188
-0.031,0.992,-0.188
-0.027,0.98,-0.168
-0.02,0.984,-0.152
-0.012,0.98,-0.152
-0.02,0.973,-0.156
-0.031,0.98,-0.176
-0.035,0.988,-0.172
-0.035,0.984,-0.172
-0.027,0.984,-0.164
-0.016,0.992,-0.18
-0.004,0.977,-0.156
-0.012,0.984,-0.152
-0.039,0.984,-0.168
-0.059,0.977,-0.152
-0.051,0.98,-0.156
-0.051,0.977,-0.152
-0.039,0.98,-0.152
-0.043,0.984,-0.152
-0.051,0.977,-0.145
-0.043,0.992,-0.152
-0.031,0.98,-0.156
-0.012,0.988,-0.152
0.008,0.984,-0.16
0.02,0.984,-0.164
0.008,0.977,-0.164
0.012,0.992,-0.164
0.02,0.996,-0.156
0.016,0.992,-0.16
-0.004,0.969,-0.156
0.004,0.973,-0.156
-0.008,1.004,-0.152
-0.043,1.02,-0.168
-0.059,0.969,-0.164
-0.043,0.992,-0.148
-0.035,0.973,-0.148
-0.023,0.969,-0.156
-0.008,0.969,-0.141
0,0.988,-0.152
0.008,0.969,-0.148
-0.012,0.984,-0.152
-0.016,0.996,-0.164
0.02,0.996,-0.152
0.027,0.988,-0.156
0.02,0.988,-0.16
0,0.973,-0.156
-0.016,0.973,-0.164
-0.008,0.98,-0.164
-0.008,0.988,-0.172
0,0.984,-0.164
0,0.98,-0.164
0,0.969,-0.168
0.008,0.988,-0.156
0.02,0.988,-0.156
0.031,0.98,-0.16
0.027,0.992,-0.156
0.02,0.992,-0.152
0.008,0.988,-0.148
0,0.98,-0.152
0.004,0.988,-0.148
0.016,0.98,-0.152
0.023,0.973,-0.152
0.016,0.992,-0.156
-0.008,0.984,-0.168
-0.012,0.977,-0.172
-0.02,0.977,-0.176
-0.023,0.992,-0.172
-0.016,0.977,-0.176
-0.012,0.965,-0.164
-0.035,0.977,-0.172
-0.047,0.988,-0.176
-0.059,0.988,-0.188
-0.047,0.977,-0.18
-0.027,0.973,-0.168
-0.027,0.988,-0.172
-0.023,0.977,-0.168
-0.016,0.988,-0.16
-0.016,0.992,-0.152
-0.012,0.977,-0.156
-0.02,0.984,-0.156
-0.027,0.996,-0.156
-0.043,0.984,-0.156
-0.047,0.973,-0.156
-0.043,0.992,-0.16
-0.039,0.992,-0.152
-0.043,0.984,-0.152
-0.023,0.973,-0.148
-0.016,0.984,-0.152
-0.023,0.992,-0.152
-0.016,0.992,-0.152
-0.027,0.984,-0.145
-0.047,0.984,-0.141
-0.066,0.98,-0.148
-0.059,1.008,-0.156
-0.035,0.984,-0.152
-0.027,0.969,-0.16
-0.043,0.973,-0.172
-0.039,0.98,-0.164
-0.008,0.988,-0.152
0.02,0.98,-0.148
0.016,0.984,-0.141
-0.031,0.996,-0.145
-0.059,0.988,-0.148
-0.059,0.977,-0.156
-0.059,0.98,-0.156
-0.047,0.984,-0.164
-0.031,0.98,-0.164
-0.031,0.988,-0.168
-0.023,0.984,-0.164
-0.02,0.988,-0.16
-0.012,0.984,-0.16
0,0.988,-0.156
-0.023,0.988,-0.164
-0.016,0.988,-0.156
-0.035,0.988,-0.16
-0.02,0.984,-0.16
-0.012,0.98,-0.152
-0.012,0.98,-0.152
-0.023,0.988,-0.152
-0.02,0.984,-0.152
-0.023,0.988,-0.156
-0.023,0.984,-0.152
-0.031,0.988,-0.16
-0.023,0.988,-0.156
-0.031,0.988,-0.156
-0.023,0.973,-0.156
-0.031,0.984,-0.156
-0.031,0.977,-0.16
-0.027,0.984,-0.156
-0.023,0.98,-0.16
-0.027,0.988,-0.156
-0.016,0.984,-0.156
-0.031,0.988,-0.152
-0.02,0.984,-0.152
-0.023,0.984,-0.152
-0.027,0.984,-0.152
-0.02,0.984,-0.152
-0.016,0.992,-0.152
-0.016,0.977,-0.152
-0.016,0.988,-0.145
-0.016,0.984,-0.152
-0.016,0.977,-0.152
-0.016,0.992,-0.152
-0.016,0.988,-0.152
-0.008,0.98,-0.152
-0.012,0.984,-0.152
-0.004,0.98,-0.152
-0.023,0.98,-0.152
-0.023,0.973,-0.152
-0.027,0.977,-0.152
-0.031,0.984,-0.152
-0.027,0.98,-0.152
-0.016,0.992,-0.141
-0.016,0.988,-0.148
-0.016,0.988,-0.141
-0.012,0.992,-0.133
-0.016,0.98,-0.129
-0.016,0.992,-0.125
-0.023,0.996,-0.125
-0.016,0.992,-0.121
-0.012,0.996,-0.117
-0.016,0.992,-0.121
-0.012,0.992,-0.105
-0.016,0.984,-0.113
-0.027,0.992,-0.109
-0.039,1,-0.094
-0.035,0.984,-0.094
-0.023,0.996,-0.094
-0.016,0.992,-0.082
-0.023,0.992,-0.082
-0.035,0.996,-0.082
-0.027,0.992,-0.082
-0.027,0.996,-0.082
-0.02,0.996,-0.078
-0.016,1.004,-0.078
-0.012,0.984,-0.074
-0.004,0.984,-0.078
-0.023,0.992,-0.078
-0.027,1,-0.082
-0.023,0.988,-0.086
-0.016,0.992,-0.078
-0.012,0.996,-0.082
-0.008,1,-0.09
-0.012,0.996,-0.086
-0.016,0.992,-0.094
-0.023,0.992,-0.086
-0.027,0.996,-0.09
-0.027,0.992,-0.09
-0.023,0.992,-0.094
-0.031,0.984,-0.094
-0.02,0.996,-0.098
-0.008,0.992,-0.094
0,0.988,-0.098
-0.023,0.996,-0.102
-0.043,0.996,-0.105
-0.039,0.988,-0.113
-0.027,0.992,-0.109
-0.027,1,-0.113
-0.027,0.98,-0.113
-0.023,0.988,-0.109
-0.043,0.988,-0.113
-0.051,0.988,-0.094
-0.07,0.984,-0.098
-0.066,0.984,-0.105
-0.063,0.992,-0.086
-0.035,0.98,-0.102
-0.031,0.988,-0.094
-0.031,0.988,-0.105
-0.02,0.992,-0.105
-0.008,0.992,-0.098
0.008,0.977,-0.113
-0.008,0.992,-0.117
0.012,1.004,-0.117
0.023,0.977,-0.121
0.035,0.984,-0.121
0.051,1,-0.117
0.031,1,-0.105
0.012,0.98,-0.133
-0.027,0.996,-0.129
-0.016,0.992,-0.141
-0.016,0.98,-0.133
-0.027,0.988,-0.129
-0.016,0.988,-0.133
-0.023,0.992,-0.125
-0.023,0.988,-0.125
-0.047,0.977,-0.129
-0.066,0.992,-0.125
-0.059,0.996,-0.125
-0.059,0.957,-0.148
-0.078,0.969,-0.129
-0.074,0.988,-0.125
-0.063,0.996,-0.156
-0.012,1.023,-0.113
-0.035,1.055,-0.086
-0.047,0.961,-0.188
-0.035,0.945,-0.152
-0.063,0.969,-0.16
-0.066,1.016,-0.117
-0.051,0.969,-0.105
-0.055,1.004,-0.066
-0.055,0.98,-0.098
-0.051,1.008,-0.066
-0.047,1.02,-0.07
-0.023,1.023,-0.051
-0.012,1.004,-0.027
-0.07,1.016,-0.047
-0.051,0.93,-0.164
-0.086,0.996,-0.168
-0.098,0.992,-0.191
-0.039,0.926,-0.203
0.016,0.941,-0.23
0.02,0.961,-0.262
0.023,0.949,-0.27
-0.008,0.922,-0.297
-0.039,0.953,-0.316
-0.09,0.969,-0.34
-0.102,0.914,-0.344
-0.078,0.918,-0.367
-0.078,0.914,-0.387
-0.043,0.898,-0.402
-0.047,0.914,-0.41
-0.066,0.93,-0.391
-0.051,0.895,-0.371
0.016,0.762,-0.324
0.055,0.895,-0.238
0,1.293,0.07
0.023,1.074,0
-0.016,1.039,0
-0.008,1,-0.008
-0.027,0.996,0.012
-0.051,1,-0.004
-0.074,0.984,0.02
-0.082,1.008,0.008
-0.047,0.992,0.02
-0.031,1.004,0.012
-0.043,1.008,0.004
-0.047,1.016,-0.008
-0.07,0.965,-0.012
-0.102,0.977,0.012
-0.086,0.996,-0.02
-0.035,0.988,-0.031
-0.008,0.957,-0.027
-0.027,0.977,-0.023
-0.051,1.012,-0.063
-0.031,1,-0.086
0.02,0.973,-0.109
0.02,1.008,-0.105
-0.016,1.055,-0.094
-0.027,1.012,-0.125
0.02,0.984,-0.137
0.043,0.992,-0.141
0.039,0.988,-0.137
0.027,0.996,-0.16
0.02,0.992,-0.148
-0.012,0.98,-0.141
-0.047,1,-0.129
-0.07,1.016,-0.141
-0.082,0.973,-0.148
-0.074,0.957,-0.145
-0.043,0.957,-0.145
-0.023,0.961,-0.152
0.012,0.957,-0.172
0.047,0.973,-0.164
0.051,1,-0.211
0.055,0.996,-0.215
0.078,0.98,-0.227
0.066,0.938,-0.25
0.008,0.957,-0.25
-0.043,1.027,-0.254
-0.07,1.047,-0.238
-0.043,1,-0.246
-0.023,0.961,-0.242
-0.016,0.93,-0.23
-0.039,0.906,-0.242
-0.043,0.914,-0.25
-0.047,0.906,-0.266
-0.078,0.938,-0.277
-0.109,0.941,-0.285
-0.098,0.93,-0.293
-0.082,0.906,-0.285
-0.082,0.863,-0.289
-0.082,0.879,-0.316
-0.078,0.867,-0.32
-0.074,0.863,-0.344
-0.094,0.887,-0.359
-0.07,0.898,-0.371
-0.102,0.938,-0.383
-0.113,1.043,-0.406
0.023,1.25,-0.414
0.102,1.215,-0.367
-0.063,0.992,-0.359
-0.074,0.754,-0.273
0.121,0.82,-0.137
0.25,1.008,-0.063
0.18,1.008,-0.027
0.117,0.926,-0.016
0.109,0.969,0
0.043,1.039,-0.004
-0.027,0.992,-0.027
-0.051,0.957,-0.039
-0.098,0.961,-0.059
-0.078,0.98,-0.035
-0.086,0.984,-0.031
-0.113,0.992,-0.035
-0.133,0.945,-0.023
-0.105,0.941,0.012
-0.035,0.98,0.027
-0.02,0.988,0.043
-0.066,1.023,0.07
-0.164,1.07,0.074
-0.16,1.168,0.102
-0.148,1.258,-0.016
0.004,1.285,-0.137
0.266,1.059,0.086
0.398,0.957,0.008
0.211,1.074,-0.273
0.039,1.273,-0.156
0.043,1.125,-0.059
0.074,0.953,-0.039
0.051,0.867,-0.02
0.09,0.883,-0.016
0.078,0.883,0.02
-0.016,0.867,0.051
-0.008,0.785,0.102
0.063,0.789,0.223
0.117,0.82,0.168
0.117,0.914,0.262
0.223,0.715,0.184
0.422,0.766,0.234
0.512,1.074,0.258
0.492,1.367,0.367
0.102,1.156,0.309
-0.004,0.941,0.258
0.07,0.969,0.289
0.191,1.027,0.266
0.23,0.91,0.277
0.234,0.875,0.293
0.25,0.863,0.32
0.199,0.859,0.367
0.113,0.926,0.414
0.066,1.051,0.48
0.027,1.023,0.539
0.012,0.961,0.578
-0.051,0.934,0.492
0.047,0.98,0.336
0.285,1.07,0.145
0.445,1.059,0.031
0.227,1.301,-0.09
0.07,1.293,-0.125
0.176,0.953,-0.164
0.184,0.613,-0.125
0.105,0.793,-0.129
0.031,0.875,-0.098
-0.051,0.871,-0.059
-0.102,0.965,-0.008
-0.066,1.027,-0.012
-0.059,0.875,-0.027
-0.027,0.813,-0.016
-0.063,0.879,-0.012
-0.109,1.012,0.012
-0.055,1.004,0.02
-0.051,1.063,0.027
0.125,1.156,-0.039
0.484,1.453,-0.203
0.328,1.043,-0.152
0.137,0.695,-0.184
0.184,0.949,-0.098
0.371,1.172,-0.02
0.273,1.039,-0.035
0.188,0.93,-0.02
0.121,0.98,-0.008
0.008,1.023,0.008
0.008,1.016,-0.008
0.125,0.977,0.02
0.195,0.992,0.031
0.258,0.945,0.082
0.305,0.926,0.09
0.32,0.957,0.102
0.387,0.934,0.004
0.285,1.133,-0.09
0.16,1.281,-0.262
0.125,1.227,-0.305
0.148,0.996,-0.332
0.141,0.734,-0.328
0.09,0.711,-0.316
0.086,0.945,-0.32
0.086,0.98,-0.344
0.07,0.855,-0.336
0.082,0.836,-0.367
0.086,0.855,-0.383
0.117,0.828,-0.402
0.172,0.797,-0.359
0.195,0.793,-0.363
0.199,0.762,-0.387
0.152,0.766,-0.395
0.234,0.773,-0.383
0.332,0.738,-0.371
0.422,0.828,-0.387
0.414,0.918,-0.34
0.355,0.914,-0.309
0.297,0.836,-0.293
0.305,0.75,-0.289
0.332,0.754,-0.281
0.336,0.797,-0.27
0.27,0.863,-0.238
0.168,0.848,-0.289
0.152,0.887,-0.25
0.188,0.941,-0.262
0.199,0.996,-0.254
0.246,1.086,-0.277
0.344,1.066,-0.273
0.391,1.309,-0.266
0.375,1.313,-0.285
0.285,0.918,-0.035
0.133,0.777,0.078
0.141,0.895,0.188
0.125,1.055,0.211
0.074,1.023,0.223
-0.035,0.949,0.207
-0.063,1.039,0.164
0.059,1.027,0.133
0.129,0.922,0.121
0.066,0.918,0.082
0.012,1.008,0.09
-0.023,0.996,0.121
-0.098,0.996,0.121
-0.141,1.016,0.133
-0.109,1.074,0.109
-0.117,1.055,0.098
-0.184,1,0.113
-0.227,1.035,0.164
-0.215,1.133,0.199
-0.207,1.258,0.184
-0.152,1.215,0.008
0.156,1.172,0.098
0.457,1.031,0.219
0.406,0.934,0.043
0.145,1.063,-0.152
-0.105,1.098,-0.051
-0.102,0.93,-0.008
-0.078,0.75,-0.035
-0.055,0.789,-0.082
0,0.816,-0.094
0.008,0.777,-0.121
-0.039,0.738,-0.125
-0.094,0.617,-0.102
-0.16,0.711,-0.063
-0.145,0.914,-0.059
0.133,1.203,0.004
-0.117,1.551,-0.063
-0.52,1.324,-0.117
-0.566,1.156,-0.242
0.219,1.418,-0.121
0.586,1.141,-0.191
0.242,0.719,-0.191
0.129,0.672,-0.125
0.168,0.945,-0.055
0.164,1.066,-0.059
0.129,0.938,-0.078
0.066,0.855,-0.066
-0.004,0.875,-0.051
-0.082,0.84,-0.039
-0.117,0.797,-0.012
-0.164,0.914,0.008
-0.145,0.957,-0.035
-0.055,1.047,-0.043
-0.082,1.066,0.035
-0.281,1.016,0.07
-0.121,1.164,0.051
0.219,1.145,-0.141
0.355,1.152,-0.027
0.301,1.109,0.145
0.277,1.262,-0.082
0.047,1.395,-0.215
-0.203,1.148,-0.117
-0.207,0.816,-0.09
-0.094,0.734,0.023
-0.016,0.613,-0.039
0.094,0.688,-0.055
0.137,0.695,-0.102
0.031,0.617,-0.117
-0.168,0.656,-0.172
-0.242,0.883,-0.074
0.113,1.273,-0.078
-0.063,1.551,-0.137
-0.629,1.289,-0.18
-0.367,1.254,-0.348
0.391,1.469,-0.047
0.449,0.922,-0.125
0.098,0.742,-0.211
0.176,0.855,-0.086
0.223,1.16,-0.008
0.176,1.051,-0.074
0.125,0.816,-0.074
0.07,0.797,-0.055
-0.02,0.844,-0.039
-0.074,0.781,-0.012
-0.137,0.844,0.016
-0.156,0.973,0.051
-0.074,1.016,0.02
-0.047,0.996,-0.031
-0.242,0.965,0.055
-0.266,1.051,0.074
0.023,1.227,0.113
0.301,1.254,-0.184
0.273,1.055,-0.008
0.27,1.09,-0.004
0.254,1.422,-0.078
0.008,1.449,-0.137
-0.035,1.043,-0.063
0.023,0.719,-0.031
0.031,0.672,0
0.059,0.648,-0.047
0.094,0.703,-0.078
0.047,0.684,-0.113
-0.105,0.633,-0.129
-0.203,0.691,-0.148
-0.195,0.965,-0.082
0.078,1.406,-0.055
-0.273,1.473,-0.066
-0.465,1.309,-0.246
0.078,1.543,-0.129
0.281,0.961,-0.137
0.176,0.766,-0.113
0.191,0.824,-0.117
0.266,1.047,-0.027
0.145,1.043,-0.059
0.063,0.938,-0.074
0.047,0.828,-0.043
-0.023,0.875,-0.039
-0.027,0.863,-0.016
-0.039,0.867,0
-0.098,0.918,-0.004
-0.109,0.938,-0.02
-0.07,0.996,-0.008
-0.141,1.031,-0.023
-0.258,0.98,0.039
-0.168,1.113,0.086
0.168,1.227,-0.082
0.223,1.273,-0.148
0.355,1.145,0.051
0.383,1.063,-0.051
0.129,1.246,-0.199
-0.152,1.211,-0.141
0.027,0.953,-0.055
0.07,0.723,-0.039
0.035,0.699,-0.059
0.023,0.75,-0.09
-0.016,0.773,-0.105
-0.031,0.684,-0.152
-0.129,0.645,-0.172
-0.23,0.688,-0.105
-0.102,0.922,-0.031
0.184,1.445,-0.027
-0.418,1.395,-0.129
-0.613,1.313,-0.324
0.172,1.504,-0.16
0.434,1.145,-0.129
0.133,0.781,-0.18
0.098,0.801,-0.105
0.262,1.027,-0.012
0.258,0.992,-0.039
0.18,0.848,-0.082
0.09,0.809,-0.063
-0.008,0.93,-0.031
-0.07,0.875,0
-0.094,0.859,0.012
-0.137,0.926,0.039
-0.129,0.91,-0.012
-0.059,0.969,0.004
-0.074,1.031,0.039
-0.262,0.988,0.098
-0.211,1.109,0.012
0.094,1.207,-0.137
0.191,1.156,-0.098
0.434,1.141,0.082
0.465,1.141,-0.035
0.199,1.359,-0.199
-0.133,1.223,-0.148
-0.039,0.934,-0.066
0.051,0.719,-0.031
0.082,0.707,-0.012
0.09,0.719,-0.047
0.063,0.734,-0.074
0.027,0.688,-0.063
-0.078,0.629,-0.121
-0.172,0.762,-0.098
-0.121,0.938,-0.098
0.242,1.398,0.035
-0.305,1.477,-0.102
-0.594,1.305,-0.238
-0.094,1.387,-0.23
0.34,1.27,-0.176
0.234,0.68,-0.172
0.102,0.754,-0.125
0.266,0.984,-0.047
0.262,1.082,-0.031
0.195,0.938,-0.066
0.121,0.859,-0.035
0.02,0.926,-0.016
-0.07,0.914,-0.008
-0.063,0.875,-0.004
-0.078,0.922,0.008
-0.074,0.914,0.012
-0.051,0.957,0.008
-0.102,1.031,0.039
-0.172,1.023,0.051
-0.246,1.043,0.023
-0.109,1.105,0.066
0.109,1.066,-0.008
0.25,1.102,-0.172
0.387,1.125,-0.137
0.473,1.094,-0.156
0.246,1.266,-0.207
-0.07,1.258,-0.195
0.105,1.016,-0.078
0.238,0.809,-0.063
0.277,0.777,-0.066
0.211,0.859,-0.02
0.039,0.844,0
-0.059,0.75,-0.055
-0.004,0.691,0
0.188,0.703,0.016
0.051,1.016,0.16
-0.215,0.973,0.098
-0.191,1.031,-0.121
0.105,1.473,-0.195
0.215,1.074,0.023
0.344,1.227,-0.059
0.363,1.297,-0.031
0.27,0.902,-0.004
0.242,0.934,0.043
0.199,0.984,0.086
0.133,0.93,0.102
0.055,0.945,0.105
-0.004,1.008,0.121
-0.004,1.004,0.113
0.051,0.977,0.105
0.066,0.977,0.125
0.055,0.949,0.172
-0.031,0.977,0.211
-0.098,1.016,0.176
-0.121,1.02,0.121
-0.043,1.047,0.008
0.02,0.992,-0.051
-0.082,0.949,-0.051
-0.137,0.996,-0.012
-0.059,0.984,-0.055
-0.035,1.012,-0.063
-0.191,0.992,-0.094
-0.313,0.992,-0.184
-0.285,0.988,-0.215
-0.168,0.957,-0.25
-0.082,0.922,-0.18
-0.066,0.934,-0.199
0.008,0.934,-0.207
0.055,0.938,-0.195
0.086,0.953,-0.191
0.047,0.984,-0.156
0.066,1.043,-0.09
0.137,1.133,-0.023
0.191,1.027,-0.035
0.113,0.84,-0.055
0.07,0.898,-0.082
0.094,1.047,-0.07
0.121,1.035,-0.02
0.105,0.988,0.004
0.07,0.977,0.008
0.066,1,0.02
0.039,1.031,0.02
0.023,1.008,0.016
0.051,1.047,0
0.074,1.027,0
0.09,0.98,-0.004
0.105,0.969,-0.012
0.125,0.992,0
0.145,1.012,0.012
0.137,1.027,-0.02
0.141,0.984,-0.066
0.121,0.965,-0.074
0.074,0.949,-0.047
0.004,0.949,-0.012
-0.027,0.977,-0.102
0.02,0.965,-0.102
0.051,0.961,-0.137
0.125,0.969,-0.121
0.125,1.004,-0.117
0.137,1.027,-0.121
0.121,0.984,-0.113
0.098,0.949,-0.125
0.09,0.98,-0.105
0.078,0.973,-0.09
0.055,0.969,-0.082
0.066,0.98,-0.082
0.082,1,-0.086
0.113,0.98,-0.09
0.113,0.953,-0.094
0.094,0.98,-0.086
0.063,0.996,-0.082
0.063,0.992,-0.086
0.086,0.988,-0.078
0.086,0.984,-0.082
0.09,0.984,-0.066
0.078,0.992,-0.055
0.07,0.992,-0.059
0.055,0.98,-0.047
0.023,0.988,-0.043
0,1.012,-0.043
0.016,1,-0.043
0.055,0.984,-0.051
0.094,0.988,-0.039
0.125,0.98,-0.047
0.113,1.004,-0.051
0.098,0.996,-0.043
0.078,0.988,-0.039
0.063,0.992,-0.039
0.059,0.996,-0.047
0.066,0.992,-0.047
0.063,0.996,-0.039
0.066,0.984,-0.047
0.074,1,-0.051
0.086,0.988,-0.043
0.086,0.984,-0.047
0.105,0.98,-0.051
0.094,0.996,-0.051
0.09,0.996,-0.055
0.094,0.988,-0.055
0.094,0.996,-0.051
0.09,1,-0.055
0.082,0.977,-0.051
0.066,0.977,-0.051
0.051,0.992,-0.051
0.047,0.996,-0.055
0.066,0.984,-0.055
0.086,0.973,-0.059
0.102,0.984,-0.063
0.105,0.992,-0.055
0.094,0.996,-0.059
0.082,0.988,-0.055
0.078,0.984,-0.059
0.07,0.98,-0.059
0.066,0.992,-0.063
0.074,1.004,-0.063
0.086,0.988,-0.059
0.09,0.988,-0.066
0.09,0.988,-0.063
0.094,0.977,-0.066
0.078,0.988,-0.059
0.074,0.992,-0.063
0.09,0.988,-0.063
0.094,0.969,-0.066
0.094,0.988,-0.063
0.098,0.98,-0.055
0.082,0.992,-0.055
0.074,0.988,-0.055
0.074,0.992,-0.051
0.063,0.992,-0.051
0.074,0.988,-0.055
0.078,0.992,-0.055
0.094,0.988,-0.055
0.102,0.992,-0.055
0.094,0.988,-0.055
0.09,0.988,-0.059
0.078,0.988,-0.055
0.086,0.992,-0.059
0.078,0.992,-0.055
0.086,0.984,-0.059
0.086,0.984,-0.059
0.09,0.984,-0.051
0.094,0.984,-0.051
0.078,0.988,-0.051
0.078,0.988,-0.055
0.082,1,-0.055
0.082,0.992,-0.055
0.09,0.984,-0.051
0.09,0.984,-0.051
0.09,0.996,-0.051
0.09,0.98,-0.051
0.09,0.992,-0.051
0.078,0.992,-0.055
0.063,0.992,-0.051
0.074,0.984,-0.047
0.063,0.992,-0.043
0.063,0.992,-0.047
0.059,0.984,-0.047
0.07,0.992,-0.047
0.086,0.996,-0.051
0.082,1,-0.055
0.07,0.996,-0.055
0.066,0.98,-0.055
0.063,0.988,-0.055
0.074,0.996,-0.055
0.066,0.984,-0.055
0.07,0.988,-0.055
0.078,0.98,-0.059
0.063,1,-0.059
0.082,0.984,-0.063
0.074,0.992,-0.063
0.082,0.984,-0.055
0.07,0.988,-0.059
0.086,0.988,-0.055
0.082,0.996,-0.051
0.086,0.992,-0.051
0.082,0.984,-0.059
0.074,0.992,-0.051
0.063,0.988,-0.051
0.051,0.992,-0.051
0.059,0.992,-0.051
0.063,0.992,-0.047
0.07,0.984,-0.051
0.082,0.988,-0.047
0.09,0.984,-0.055
0.09,0.992,-0.051
0.086,0.992,-0.051
0.074,0.988,-0.051
0.055,0.992,-0.051
0.059,0.988,-0.051
0.063,1.004,-0.051
0.066,0.992,-0.051
0.07,0.992,-0.051
0.07,0.984,-0.051
0.082,0.992,-0.051
0.082,0.988,-0.051
0.09,0.984,-0.051
0.086,0.98,-0.051
0.07,0.988,-0.051
0.07,0.988,-0.055
0.078,0.988,-0.059
0.07,0.992,-0.055
0.078,0.988,-0.055
0.074,0.988,-0.055
0.063,0.988,-0.059
0.07,1,-0.055
0.082,0.984,-0.055
0.082,0.988,-0.055
0.082,0.992,-0.051
0.086,0.988,-0.063
0.09,0.984,-0.051
0.074,0.992,-0.059
0.066,0.98,-0.051
0.063,0.992,-0.047
0.055,0.988,-0.047
0.059,1,-0.051
0.078,0.988,-0.051
0.09,0.988,-0.051
0.09,0.984,-0.051
0.09,0.992,-0.051
0.07,1,-0.051
0.059,0.992,-0.066
0.059,0.988,-0.063
0.063,0.988,-0.051
0.063,0.992,-0.051
0.066,0.988,-0.055
0.066,0.988,-0.051
0.066,0.992,-0.055
0.074,0.992,-0.055
0.078,0.992,-0.055
0.07,0.988,-0.051
0.074,0.992,-0.051
0.074,0.988,-0.051
0.063,0.992,-0.051
0.063,0.984,-0.051
0.078,1,-0.051
0.078,0.988,-0.051
0.09,0.988,-0.047
0.086,0.984,-0.051
0.078,0.988,-0.051
0.07,0.984,-0.055
0.066,0.992,-0.051
0.07,0.992,-0.043
0.066,0.992,-0.051
0.07,0.992,-0.051
0.07,0.988,-0.051
0.086,0.992,-0.051
0.098,0.98,-0.051
0.094,0.992,-0.051
0.082,0.992,-0.055
0.066,1.004,-0.051
0.063,0.984,-0.059
0.063,0.988,-0.059
0.059,0.992,-0.051
0.066,0.992,-0.055
0.066,0.98,-0.059
0.078,0.988,-0.059
0.078,0.98,-0.051
0.066,0.992,-0.055
0.07,0.988,-0.055
0.07,0.992,-0.051
0.066,0.992,-0.051
0.078,0.984,-0.051
0.082,0.988,-0.047
0.082,0.98,-0.055
0.07,1.008,-0.051
0.078,0.98,-0.059
0.09,0.988,-0.051
0.09,0.992,-0.051
0.09,0.988,-0.051
0.074,0.992,-0.051
0.07,0.988,-0.051
0.059,0.992,-0.051
0.066,0.992,-0.047
0.07,0.988,-0.047
0.063,0.984,-0.051
0.059,0.992,-0.043
0.066,0.992,-0.051
0.09,0.992,-0.051
0.098,0.988,-0.051
0.086,1.008,-0.055
0.063,0.992,-0.059
0.051,0.992,-0.055
0.059,0.992,-0.055
0.059,0.992,-0.051
0.059,0.996,-0.055
0.063,0.992,-0.055
0.063,0.988,-0.055
0.059,0.988,-0.051
0.074,0.992,-0.055
0.078,0.988,-0.055
0.074,0.988,-0.051
0.074,0.984,-0.051
0.063,0.992,-0.051
0.063,0.992,-0.051
0.066,0.988,-0.051
0.074,0.988,-0.051
0.07,0.988,-0.047
0.086,0.984,-0.047
0.074,0.988,-0.051
0.074,0.992,-0.051
0.078,0.98,-0.051
0.063,0.984,-0.051
0.059,0.992,-0.059
0.07,0.988,-0.051
0.063,0.988,-0.055
0.066,0.988,-0.051
0.066,0.992,-0.051
0.055,0.992,-0.047
0.055,0.988,-0.047
0.074,1.004,-0.055
0.09,0.992,-0.055
0.086,0.984,-0.055
0.074,0.988,-0.051
0.059,1.004,-0.047
0.055,0.988,-0.039
0.055,0.996,-0.047
0.059,0.984,-0.047
0.059,0.992,-0.051
0.066,0.988,-0.055
0.078,0.988,-0.051
0.066,0.992,-0.059
0.063,0.988,-0.055
0.055,0.992,-0.059
0.063,0.984,-0.055
0.055,1.004,-0.055
0.063,0.984,-0.051
0.063,0.992,-0.051
0.07,0.992,-0.051
0.074,0.984,-0.051
0.078,0.992,-0.047
0.09,0.984,-0.047
0.078,0.992,-0.051
0.066,0.988,-0.047
0.066,0.988,-0.051
0.066,0.988,-0.051
0.059,0.984,-0.047
0.059,0.992,-0.051
0.066,0.984,-0.051
0.07,0.988,-0.051
0.09,1,-0.063
0.086,0.992,-0.066
0.102,0.977,-0.063
0.117,0.98,-0.039
0.086,0.984,-0.047
0.09,0.965,-0.059
0.086,0.988,-0.035
0.066,0.984,-0.063
0.098,0.918,-0.066
0.152,0.895,-0.027
0.145,0.891,-0.082
0.23,0.742,-0.133
0.113,0.664,-0.039
0.121,0.57,0.008
0.02,0.59,-0.039
0.016,0.852,-0.02
-0.008,0.938,-0.074
-0.016,0.953,-0.141
-0.047,1.277,-0.141
0.031,1.441,-0.145
0.059,1.621,-0.148
0.004,1.957,-0.16
-0.066,2.438,-0.191
-0.074,2.707,-0.215
0.188,2.359,-0.121
0.516,1.77,-0.125
0.48,0.957,0.012
0.207,0.141,-0.063
0.398,-0.551,0.059
0,-0.559,-0.059
-0.066,-0.098,-0.094
-0.055,0.195,-0.039
-0.051,0.176,0
-0.031,0.023,-0.02
0.047,-0.059,-0.023
0.129,-0.098,0.063
0.148,-0.094,0.098
0.328,0.25,0
0.699,2.215,-0.301
-0.086,3.551,-0.156
-0.109,2.188,-0.137
-0.391,2.105,-0.086
-0.059,1.605,-0.035
0.258,1.117,0.063
0.438,0.742,0.063
0.383,0.512,0.051
0.27,0.379,0.031
0.273,0.258,0.004
0.258,0.359,0.02
0.156,0.66,0.027
0.066,0.738,-0.031
-0.211,0.883,-0.047
-0.246,1.152,-0.195
-0.027,1.445,-0.176
-0.066,1.914,-0.082
-0.336,2.883,-0.105
-0.367,2.996,-0.121
-0.066,2.574,-0.172
0.555,2.07,-0.211
0.699,0.977,-0.02
0.41,0.254,0.086
0.477,-0.379,0.102
0.039,-0.695,-0.063
-0.203,-0.184,-0.102
-0.188,0.223,-0.012
-0.102,0.16,-0.023
-0.004,0.027,-0.027
0.023,-0.066,-0.004
0.055,-0.066,0.012
0.145,-0.035,0.027
0.223,0.109,0.117
0.324,1.082,-0.125
-0.398,2.785,-0.273
-0.168,3.082,-0.281
-0.262,2.188,-0.094
0.113,1.91,-0.031
0.203,1.273,-0.09
0.184,0.82,-0.086
0.266,0.473,0
0.344,0.289,0.047
0.293,0.285,0.035
0.336,0.406,-0.027
0.184,0.758,0.078
-0.012,0.805,0.027
-0.051,0.707,-0.039
-0.164,0.852,-0.031
-0.164,1.027,-0.07
-0.078,1.34,-0.09
-0.109,1.637,-0.059
-0.254,2.258,-0.066
-0.324,2.777,-0.109
-0.27,2.582,-0.141
0.09,2.387,-0.184
0.563,1.734,-0.105
0.492,0.926,0.02
0.379,0.07,-0.051
0.336,-0.594,0.125
-0.129,-0.652,-0.086
-0.207,0.031,-0.141
-0.145,0.258,-0.016
-0.035,0.121,-0.023
0.051,-0.063,-0.016
0.117,-0.109,0.051
0.156,-0.035,0.031
0.152,-0.094,0.141
0.246,0.289,-0.023
0.641,2.93,-0.305
-0.227,3.207,-0.293
-0.352,2.441,-0.09
-0.238,1.988,0.027
-0.012,1.645,-0.008
0.16,1.012,-0.004
0.309,0.523,0.031
0.254,0.383,0.051
0.121,0.441,0.051
0.066,0.77,0.039
-0.059,1.137,0.016
-0.102,1.047,-0.004
-0.07,0.855,-0.09
-0.012,0.898,-0.148
-0.012,1.305,-0.086
-0.105,1.277,-0.082
-0.113,1.109,-0.168
-0.012,1.082,-0.129
0.105,0.898,-0.141
0.035,0.836,-0.125
-0.039,0.813,-0.148
-0.094,0.797,-0.172
-0.16,0.84,-0.215
-0.188,0.816,-0.207
-0.246,0.879,-0.227
-0.32,1,-0.281
-0.355,1.043,-0.301
-0.254,1.047,-0.344
-0.113,1.164,-0.332
-0.016,1.465,-0.238
0.027,1.035,-0.289
0.277,0.934,-0.168
0.25,1.109,-0.02
0.137,1.129,-0.043
0.137,0.906,-0.047
0.172,0.816,-0.023
0.152,0.777,-0.027
0.086,0.84,-0.043
0.039,0.82,-0.02
0.059,0.77,0.012
0.016,0.754,0.016
-0.074,0.852,0.02
-0.18,1.074,-0.008
-0.055,1.164,-0.039
-0.094,1.086,0.043
-0.273,1.016,0.078
-0.02,1.289,-0.043
0.305,1.434,-0.004
0.652,1.324,0.23
0.488,1.125,0.031
0.18,1.246,-0.074
0,1.313,0.016
0.133,0.938,0.027
0.113,0.531,0.039
0.098,0.391,-0.031
0.105,0.434,-0.047
0.059,0.609,-0.094
-0.094,0.676,-0.117
-0.211,0.586,-0.207
-0.34,0.883,-0.211
0.07,1.473,0.035
-0.227,2.168,-0.246
-0.406,1.328,-0.289
0.273,1.563,-0.148
0.426,0.695,-0.133
0.34,0.844,-0.168
0.246,1.07,-0.051
0.266,1.07,-0.016
0.25,0.891,-0.059
0.195,0.676,-0.027
0.125,0.633,-0.047
-0.012,0.738,-0.039
-0.121,0.68,0.059
-0.121,0.832,0.043
-0.086,0.914,-0.016
-0.02,1,-0.016
-0.227,1.039,0.09
-0.461,1.051,0.055
0.184,1.406,0.059
0.68,1.293,0.035
0.539,1.313,0.316
0.496,1.453,-0.043
0.258,1.617,-0.07
-0.012,1.242,-0.02
-0.016,0.684,0.055
0.027,0.414,0.059
0.055,0.422,0.004
0.082,0.547,-0.055
0.063,0.605,-0.016
-0.02,0.527,-0.148
-0.121,0.652,-0.184
-0.203,0.941,-0.086
0.039,1.648,-0.004
-0.5,1.656,-0.199
-0.391,1.266,-0.41
0.559,1.738,-0.051
0.59,1.066,-0.078
0.195,0.902,-0.215
0.191,0.938,-0.098
0.281,0.906,-0.004
0.219,0.848,-0.047
0.164,0.75,-0.031
0.133,0.711,-0.035
-0.02,0.773,-0.035
-0.129,0.73,-0.004
-0.16,0.773,0.043
-0.145,0.902,0.027
0,0.977,-0.051
-0.012,1.047,0.023
-0.43,0.953,0.066
0.004,1.219,0.117
0.461,1.363,-0.145
0.52,1.309,0.285
0.512,1.418,0
0.309,1.508,-0.074
0.07,1.402,-0.008
0.07,0.945,0.059
0.109,0.539,0.059
0.078,0.48,0.023
0.09,0.508,-0.027
0.094,0.621,-0.047
-0.008,0.602,-0.063
-0.098,0.563,-0.164
-0.289,0.824,-0.23
0.102,1.094,-0.02
-0.098,2.207,-0.129
-0.594,1.211,-0.285
0.188,1.395,-0.297
0.551,1.148,0.047
0.41,0.859,-0.129
0.145,0.969,-0.121
0.227,1.063,-0.023
0.305,0.902,-0.066
0.148,0.855,-0.07
0.07,0.688,-0.066
0.012,0.703,-0.039
-0.035,0.766,-0.016
-0.078,0.707,0.012
-0.137,0.891,0.02
-0.098,0.996,0.008
0.027,1.094,-0.035
-0.277,0.984,0.07
-0.402,1.074,0.055
0.172,1.277,0.082
0.484,1.227,-0.137
0.547,1.18,0.285
0.559,1.344,0.059
0.371,1.426,-0.148
0.035,1.316,-0.07
-0.074,0.863,0.016
-0.082,0.559,0.035
0.004,0.508,-0.004
0.117,0.555,-0.035
0.156,0.652,-0.063
0.027,0.586,-0.094
-0.109,0.563,-0.195
-0.332,0.914,-0.199
0.148,1.238,0.012
-0.191,2.199,-0.184
-0.73,1.066,-0.23
0.203,1.398,-0.27
0.598,1.258,0.066
0.328,0.863,-0.184
0.168,0.891,-0.102
0.297,0.988,0.012
0.297,0.934,-0.043
0.195,0.836,-0.059
0.113,0.676,-0.051
-0.016,0.762,-0.035
-0.121,0.777,-0.02
-0.168,0.742,0.012
-0.207,0.848,0.031
-0.07,0.973,-0.051
0.063,1.039,-0.031
-0.301,0.977,0.055
-0.23,1.137,0.082
0.254,1.313,-0.148
0.535,1.297,0.148
0.508,1.398,0.262
0.379,1.285,-0.07
0.066,1.465,-0.113
-0.063,1.195,0.004
0.012,0.668,0.039
0.008,0.586,0.078
0.074,0.547,-0.004
0.121,0.617,-0.047
0.094,0.621,-0.082
-0.098,0.543,-0.148
-0.301,0.715,-0.172
-0.129,0.992,-0.125
0.18,1.957,-0.027
-0.551,1.406,-0.211
-0.066,1.055,-0.434
0.41,1.563,0.027
0.484,0.941,-0.105
0.156,0.918,-0.133
0.242,1,-0.027
0.305,0.953,-0.027
0.211,0.891,-0.059
0.098,0.707,-0.051
0.016,0.711,-0.063
-0.094,0.766,-0.02
-0.16,0.754,-0.012
-0.188,0.852,0.008
-0.223,0.953,-0.031
0.039,1.012,-0.043
-0.063,1.055,0.055
-0.395,0.953,0.047
0.152,1.23,-0.051
0.465,1.391,-0.016
0.527,1.281,0.273
0.469,1.223,-0.027
0.301,1.383,-0.117
0.055,1.383,-0.055
0.023,0.922,0
0.016,0.574,-0.008
0.016,0.527,0.004
0.086,0.535,-0.039
0.09,0.668,-0.031
-0.031,0.617,-0.07
-0.16,0.652,-0.172
-0.32,0.875,-0.152
0.137,1.234,0.02
-0.176,2.102,-0.219
-0.406,1.02,-0.238
0.375,1.539,-0.16
0.52,1.113,-0.02
0.203,0.766,-0.125
0.141,0.895,-0.066
0.258,1.008,0.02
0.219,0.957,-0.047
0.125,0.871,-0.047
0.051,0.73,-0.039
-0.051,0.746,-0.012
-0.133,0.746,0.004
-0.148,0.785,0.027
-0.113,0.906,0.004
0.016,0.996,-0.02
-0.023,1.105,0.027
-0.434,1.016,0.113
-0.188,1.199,0.09
0.395,1.281,-0.219
0.547,1.086,0.164
0.469,1.309,0.133
0.414,1.449,-0.086
0.105,1.43,-0.102
-0.031,0.988,-0.031
-0.078,0.586,0.012
-0.066,0.57,0
0.02,0.578,-0.043
0.063,0.664,-0.074
-0.008,0.617,-0.102
-0.117,0.5,-0.199
-0.297,0.75,-0.176
-0.078,1.063,-0.105
0.055,1.996,0.059
-0.699,1.43,-0.152
-0.301,1.047,-0.391
0.594,1.688,0.047
0.652,1.031,-0.086
0.141,0.855,-0.211
0.184,0.918,-0.035
0.242,0.996,-0.012
0.125,0.883,-0.059
0.086,0.684,-0.051
0.047,0.676,-0.055
-0.016,0.789,-0.023
-0.043,0.805,0
-0.07,0.863,0.008
-0.129,0.934,-0.043
-0.035,0.957,-0.082
-0.043,1.07,-0.008
-0.309,1.066,0.027
-0.09,1.172,0.035
0.449,1.223,-0.133
0.344,1.184,0.074
0.363,1.352,0.086
0.449,1.465,-0.094
0.156,1.352,-0.082
-0.031,0.965,-0.047
-0.063,0.594,-0.012
-0.039,0.605,-0.016
0.047,0.578,-0.023
0.086,0.652,-0.066
0.031,0.605,-0.125
-0.125,0.535,-0.137
-0.301,0.77,-0.172
-0.086,1.156,-0.035
0.035,2.063,0
-0.602,1.309,-0.168
0.035,1.363,-0.203
0.523,1.313,-0.063
0.441,0.797,-0.191
0.195,0.906,-0.129
0.262,0.984,-0.004
0.281,0.945,-0.02
0.227,0.836,-0.055
0.156,0.672,-0.063
0.023,0.695,-0.023
-0.055,0.754,-0.023
-0.109,0.836,0.016
-0.109,0.977,0.043
-0.125,0.969,-0.016
0.016,0.969,-0.035
-0.082,1.039,0.02
-0.379,1.008,0.039
0.043,1.277,0.125
0.438,1.355,-0.102
0.316,1.25,0.137
0.309,1.285,0.027
0.34,1.441,-0.074
0.164,1.359,-0.051
0.055,0.867,0.02
0.055,0.523,0.039
0.02,0.523,0.02
0.086,0.535,-0.039
0.105,0.656,-0.094
-0.031,0.641,-0.078
-0.191,0.727,-0.172
-0.316,0.805,-0.172
0.066,1.117,-0.074
-0.125,2.207,-0.203
-0.457,1.121,-0.199
0.227,1.461,-0.23
0.512,1.074,-0.055
0.285,0.766,-0.148
0.148,0.996,-0.059
0.246,1.039,0.016
0.227,0.906,-0.059
0.121,0.832,-0.047
0.059,0.73,-0.031
-0.047,0.785,-0.031
-0.125,0.742,-0.016
-0.152,0.715,0.02
-0.16,0.883,-0.008
-0.066,0.926,-0.066
-0.004,1.082,-0.039
-0.305,1.059,0.055
-0.102,1.16,0.051
0.363,1.383,-0.141
0.441,1.113,0.098
0.5,1.344,0.145
0.465,1.531,-0.055
0.141,1.375,-0.086
-0.055,1.043,-0.035
-0.051,0.574,0.008
-0.023,0.547,0.02
0.059,0.527,-0.023
0.059,0.637,-0.055
0.008,0.656,-0.105
-0.113,0.543,-0.109
-0.23,0.703,-0.191
0.004,1,0
0.035,2.109,-0.02
-0.664,1.34,-0.215
0.105,1.391,-0.305
0.527,1.402,-0.078
0.359,0.691,-0.172
0.141,0.93,-0.121
0.293,0.996,-0.023
0.273,0.887,-0.031
0.156,0.828,-0.059
0.078,0.766,-0.027
0.008,0.777,-0.023
-0.074,0.758,-0.012
-0.102,0.754,0.016
-0.137,0.871,0.027
-0.148,0.945,-0.047
-0.008,1.008,-0.055
-0.137,1.063,0.02
-0.324,1.008,0.023
0.133,1.32,-0.074
0.402,1.363,-0.039
0.41,1.367,0.262
0.434,1.344,-0.02
0.281,1.363,-0.121
0.023,1.215,-0.043
0.012,0.773,0.016
-0.004,0.52,0.043
0.02,0.551,-0.012
0.035,0.598,-0.031
0.039,0.715,-0.059
-0.02,0.672,-0.156
-0.191,0.684,-0.184
-0.246,0.855,-0.16
0.145,1.414,-0.02
-0.348,1.926,-0.176
-0.406,0.977,-0.355
0.402,1.711,-0.098
0.563,0.871,-0.148
0.184,0.855,-0.148
0.207,1.078,-0.02
0.324,1.066,0.02
0.23,0.902,-0.074
0.145,0.738,-0.063
0.008,0.754,-0.043
-0.047,0.723,-0.023
-0.078,0.625,0.004
-0.121,0.75,0.012
-0.148,0.957,0
0.004,1.07,-0.051
-0.07,1.141,0
-0.453,0.98,0.055
0.008,1.234,0.004
0.426,1.301,-0.141
0.461,1.113,0.234
0.457,1.488,0.09
0.402,1.523,-0.125
0.098,1.379,-0.059
-0.055,0.891,-0.02
-0.113,0.516,0.035
-0.07,0.508,0.031
0.023,0.496,-0.02
0.078,0.633,-0.043
-0.004,0.613,-0.102
-0.164,0.648,-0.129
-0.199,0.883,-0.129
0.18,1.438,0.027
-0.371,1.906,-0.168
-0.605,1.215,-0.324
0.18,1.621,-0.16
0.512,1.02,-0.086
0.313,0.852,-0.152
0.277,0.898,-0.086
0.313,0.941,0.004
0.211,0.832,-0.047
0.125,0.762,-0.027
0.02,0.762,-0.027
-0.125,0.82,-0.035
-0.188,0.789,-0.016
-0.168,0.824,0.043
-0.086,0.941,-0.008
-0.059,1.016,-0.012
-0.277,1.02,0.082
-0.488,1.031,0.082
0.086,1.273,0.07
0.543,1.223,-0.09
0.535,1.191,0.309
0.543,1.344,-0.035
0.23,1.594,-0.133
-0.043,1.398,-0.039
-0.055,0.801,0.016
-0.031,0.516,0.035
-0.016,0.418,0
0.043,0.488,-0.051
0.059,0.594,-0.043
-0.113,0.641,-0.156
-0.289,0.801,-0.148
0.004,0.945,-0.035
0.082,2.219,-0.059
-0.395,1.02,-0.25
0.305,1.633,-0.223
0.406,1.184,-0.039
0.254,0.836,-0.176
0.18,0.992,-0.074
0.285,1.047,0.031
0.199,1.023,-0.027
0.066,0.949,-0.039
0.02,0.754,-0.051
-0.02,0.738,-0.047
-0.016,0.762,-0.027
-0.066,0.754,0.02
-0.133,0.832,-0.004
-0.129,0.957,-0.02
-0.074,0.98,-0.051
-0.25,0.984,0.016
-0.238,1.043,0.023
0.199,1.219,-0.059
0.379,1.238,-0.02
0.395,1.289,0.137
0.426,1.355,0.043
0.23,1.398,-0.141
-0.078,1.262,-0.066
-0.066,0.863,-0.039
-0.043,0.664,-0.012
0.023,0.563,-0.02
0.07,0.594,-0.055
0.074,0.66,-0.078
-0.043,0.598,-0.102
-0.199,0.699,-0.16
-0.109,0.898,-0.113
0.191,1.473,0.031
-0.277,1.535,-0.125
-0.641,1.133,-0.262
0.082,1.461,-0.145
0.496,1.305,-0.055
0.254,0.84,-0.141
0.18,0.793,-0.09
0.289,0.988,0.008
0.211,1.004,-0.027
0.113,0.922,-0.047
0.074,0.789,-0.043
-0.012,0.801,-0.035
-0.105,0.762,-0.027
-0.113,0.777,0.004
-0.121,0.887,0.004
-0.105,0.988,-0.035
-0.027,1.016,-0.094
-0.18,0.984,-0.012
-0.332,1.008,0.023
-0.012,1.184,0.051
0.438,1.238,-0.098
0.371,1.113,0.109
0.371,1.277,0.113
0.402,1.406,-0.051
0.055,1.344,-0.074
-0.086,1.016,-0.063
-0.047,0.691,0.004
0.023,0.652,0.008
0.07,0.652,-0.004
0.07,0.723,-0.063
-0.004,0.625,-0.109
-0.172,0.641,-0.09
-0.203,0.785,-0.105
0.223,0.961,0.004
0.004,1.828,-0.031
-0.578,1.168,-0.137
-0.578,1.188,-0.293
0.215,1.648,-0.051
0.512,1.152,-0.145
0.164,0.688,-0.176
0.18,0.734,-0.055
0.266,1.008,0.02
0.203,1.016,-0.023
0.145,0.887,-0.027
0.066,0.891,-0.016
-0.02,0.852,-0.008
-0.098,0.762,-0.02
-0.141,0.84,0.008
-0.148,0.887,0.016
-0.164,0.93,-0.02
-0.078,0.941,-0.074
-0.133,0.938,-0.059
-0.227,1.027,0.012
-0.098,1.195,0.063
0.145,1.281,-0.027
0.219,1.195,-0.016
0.238,1.164,0.109
0.344,1.203,0.043
0.141,1.43,-0.109
-0.102,1.289,-0.066
-0.086,0.918,0.012
-0.07,0.719,0.035
-0.031,0.641,0.012
0.055,0.664,-0.02
0.098,0.738,-0.039
0.031,0.66,-0.082
-0.133,0.691,-0.109
-0.246,0.852,-0.105
0.254,0.977,-0.02
-0.098,1.75,-0.039
-0.48,1.156,-0.18
-0.102,1.527,-0.246
0.168,1.414,-0.055
0.199,0.703,-0.199
0.168,0.816,-0.074
0.348,1.008,-0.012
0.293,0.988,-0.016
0.129,0.902,-0.07
0.102,0.844,-0.02
0.039,0.941,-0.008
-0.113,0.91,-0.016
-0.16,0.828,-0.008
-0.156,0.879,-0.004
-0.168,0.93,0.008
-0.148,0.926,-0.012
-0.047,0.934,-0.031
0.004,0.98,0
-0.078,0.988,0.031
0.047,1.176,0.07
0.18,1.27,-0.09
0.172,1.145,-0.027
0.309,1.094,0.129
0.328,1.18,0.004
0.078,1.391,-0.129
-0.082,1.254,-0.086
0.043,0.934,-0.031
0.023,0.77,-0.023
0,0.727,-0.055
0.051,0.691,-0.02
0.07,0.691,-0.047
0.02,0.621,-0.074
-0.051,0.559,-0.102
-0.156,0.824,-0.152
0.031,1.121,-0.012
0.133,1.469,-0.004
-0.371,1.195,-0.191
-0.082,1.344,-0.289
0.285,1.586,-0.109
0.336,0.82,-0.141
0.09,0.773,-0.098
0.313,0.938,0
0.535,1.02,0.031
0.344,0.988,0.023
0.203,0.934,0.023
0.141,0.953,0.066
0.043,1.023,0.063
-0.004,1,0.047
-0.023,0.977,0.047
-0.051,0.98,-0.012
0,0.973,0.035
0.102,0.988,0.063
0.168,0.953,0.109
0.039,0.852,0.016
-0.055,0.836,-0.074
0.129,1.313,-0.195
0.172,1.406,-0.242
0.137,1.211,-0.238
0.156,1.027,-0.23
0.008,0.82,-0.125
-0.043,0.758,-0.219
0.031,0.805,-0.219
0.074,0.883,-0.234
0.102,0.934,-0.289
0.113,0.934,-0.285
0.121,0.891,-0.293
0.129,0.895,-0.266
0.109,0.902,-0.281
0.098,0.879,-0.27
0.063,0.859,-0.277
0.023,0.852,-0.289
-0.02,0.859,-0.344
-0.02,0.879,-0.363
-0.012,0.922,-0.363
0,0.926,-0.395
0.043,0.902,-0.457
0.102,0.945,-0.445
0.129,1.008,-0.414
0.199,1.09,-0.367
0.258,1.211,-0.23
0.215,0.938,-0.035
0.223,0.895,0.098
0.184,0.969,0.16
0.246,0.996,0.203
0.156,1.051,0.195
0.012,1.012,0.133
0.039,0.969,0.121
0.094,0.973,0.094
0.047,0.961,0.082
0.004,0.977,0.031
-0.031,1,0.016
-0.051,0.965,0
-0.051,0.965,0.02
-0.074,1.004,-0.004
-0.07,1.043,-0.047
-0.125,1.008,-0.078
-0.156,1.039,-0.07
-0.074,1.18,-0.012
0.129,1.344,0.172
0.301,1.188,0.168
0.211,0.98,0.211
0.242,1.074,0.133
0.281,1.285,-0.016
0.148,1.188,0.074
0.207,0.926,0.098
0.188,0.82,0.039
0.094,0.723,-0.02
0.105,0.715,-0.09
0.086,0.746,-0.102
-0.004,0.766,-0.148
0.004,0.66,-0.133
0.02,0.738,-0.191
0.238,0.969,-0.156
0.16,1.301,-0.215
-0.176,1.09,-0.309
-0.086,1.16,-0.363
0.07,1.457,-0.207
0.246,1.289,-0.152
0.129,0.852,0.008
0.184,0.754,0.102
0.227,0.781,0.141
0.273,0.941,0.164
0.27,1.016,0.117
0.152,0.863,0.066
0.07,0.938,0.07
-0.008,0.859,0.055
-0.035,0.852,0.078
-0.016,0.844,0.094
-0.043,0.941,0.059
-0.098,0.996,0.043
-0.047,1.113,-0.012
-0.098,1.129,0.035
-0.441,0.992,0.121
-0.234,1.055,0.02
0.145,1.281,0.188
0.523,1.156,0.074
0.309,1.027,0.289
0.246,1.238,0.133
0.207,1.461,-0.074
-0.008,1.371,0.035
-0.043,0.887,0.027
-0.039,0.707,0.055
-0.031,0.68,0.008
0.066,0.664,-0.066
0.094,0.672,-0.055
-0.078,0.527,-0.074
-0.18,0.59,-0.199
-0.031,0.793,-0.082
0.301,1.574,0.129
-0.285,1.68,-0.285
-0.609,1.074,-0.246
0.129,1.266,-0.117
0.52,1.293,0.02
0.25,0.906,-0.105
0.074,0.707,-0.07
0.148,0.84,0.004
0.223,0.957,-0.008
0.148,0.82,-0.051
0.043,0.719,-0.035
-0.078,0.809,-0.02
-0.168,0.828,0.004
-0.156,0.906,0.039
-0.102,0.984,0.035
0.02,1.059,-0.004
0.016,1.074,0.078
-0.426,0.898,0.168
-0.309,1.098,-0.02
0.313,1.316,-0.121
0.617,1.059,0.086
0.477,1.203,0.258
0.438,1.645,-0.047
0.098,1.652,-0.125
-0.094,1.035,-0.047
-0.164,0.527,0.004
-0.152,0.48,0.059
0.02,0.492,-0.027
0.07,0.633,-0.043
0.008,0.645,-0.078
-0.16,0.578,-0.16
-0.293,0.852,-0.172
0.219,1.289,0.105
-0.16,2.176,-0.262
-0.52,1.066,-0.242
0.387,1.465,-0.164
0.539,1.027,-0.023
0.223,0.879,-0.16
0.129,0.953,-0.082
0.258,0.898,0.008
0.184,0.801,-0.016
0.145,0.703,-0.016
0.016,0.766,-0.016
-0.113,0.785,-0.02
-0.219,0.805,0.004
-0.23,0.875,-0.012
-0.078,0.988,-0.055
0.012,1.059,-0.031
-0.41,0.914,0.105
-0.32,1.09,-0.016
0.41,1.363,-0.219
0.594,1.16,0.309
0.492,1.418,0.059
0.387,1.52,-0.109
0.008,1.395,-0.082
-0.047,1,-0.008
-0.016,0.559,0.027
0.016,0.477,0.035
0.145,0.484,-0.059
0.148,0.652,-0.066
-0.039,0.609,-0.105
-0.293,0.656,-0.148
-0.238,0.887,-0.141
0.23,1.402,-0.008
-0.297,2.047,-0.254
-0.438,1.039,-0.352
0.285,1.672,-0.086
0.527,1.074,-0.055
0.195,0.891,-0.09
0.164,0.828,-0.027
0.25,0.836,0.016
0.176,0.824,-0.035
0.168,0.68,-0.043
-0.012,0.734,-0.031
-0.176,0.742,-0.012
-0.219,0.762,0
-0.172,0.918,-0.008
-0.082,0.953,-0.121
-0.074,1.047,-0.047
-0.48,0.93,0.066
0.117,1.227,0.016
0.715,1.422,-0.074
0.469,1.203,0.16
0.375,1.465,-0.066
0.32,1.703,-0.148
0.125,1.328,-0.094
0.051,0.758,0.07
0.047,0.578,-0.008
0.094,0.551,-0.043
-0.07,0.594,-0.082
-0.168,0.477,-0.148
-0.184,0.543,-0.211
-0.289,0.621,-0.188
-0.449,0.984,-0.16
0,1.09,-0.238
0.273,2.211,-0.039
0.332,1.035,-0.066
0.531,1.277,-0.164
0.113,1.441,0.063
-0.152,1.152,-0.039
0.055,0.758,-0.137
0.289,0.703,-0.039
0.152,0.816,-0.031
-0.027,0.734,-0.055
-0.152,0.711,-0.047
-0.121,0.809,-0.023
-0.047,0.887,0.012
-0.047,0.875,0
-0.094,0.91,-0.035
0.031,1.047,-0.004
0.082,1.09,-0.012
-0.418,0.906,0.129
-0.305,1.086,-0.008
0.363,1.383,-0.168
0.727,1.266,0.262
0.637,1.324,0.063
0.359,1.363,-0.16
0.055,1.484,-0.078
-0.086,1.086,-0.012
-0.098,0.586,-0.004
-0.047,0.559,0.07
0.078,0.504,0.02
0.152,0.609,-0.02
0.074,0.633,-0.039
-0.078,0.535,-0.16
-0.199,0.895,-0.141
0.195,1.168,0.055
-0.152,2.133,-0.176
-0.531,0.918,-0.266
0.371,1.617,-0.156
0.547,1.156,-0.031
0.27,0.887,-0.164
0.199,0.883,-0.09
0.27,0.953,0.012
0.234,0.898,-0.031
0.188,0.789,-0.031
0.039,0.75,-0.047
-0.094,0.75,-0.031
-0.16,0.789,-0.012
-0.156,0.828,0.027
-0.051,0.953,-0.051
-0.031,1.023,-0.082
-0.316,0.961,0.098
-0.418,1.004,0.066
0.395,1.246,-0.102
0.602,1.07,0.066
0.398,1.285,0.125
0.484,1.586,-0.07
0.172,1.578,-0.109
-0.086,1.184,-0.07
-0.137,0.625,-0.043
-0.074,0.504,0.07
0.027,0.5,0.02
0.066,0.602,-0.016
0.043,0.594,-0.078
-0.129,0.625,-0.188
-0.23,0.848,-0.07
0.305,1.059,0.043
-0.055,2.234,-0.109
-0.664,1.027,-0.195
0.145,1.563,-0.227
0.438,1.09,-0.063
0.23,0.789,-0.125
0.211,0.91,-0.051
0.285,1.043,0.008
0.199,1,-0.031
0.133,0.82,-0.043
0.059,0.742,-0.031
-0.031,0.82,-0.027
-0.051,0.848,-0.027
-0.098,0.852,-0.004
-0.137,0.887,0
-0.125,0.906,-0.07
-0.113,0.977,-0.051
-0.305,0.977,0.059
-0.273,1.07,0.07
0.344,1.246,-0.059
0.426,1.277,0.055
0.34,1.215,0.082
0.367,1.305,-0.031
0.051,1.441,-0.133
-0.168,1.219,-0.059
-0.074,0.793,-0.027
-0.012,0.633,-0.004
0.012,0.602,0.004
0.035,0.695,-0.02
0.031,0.711,-0.066
-0.078,0.59,-0.121
-0.211,0.723,-0.125
-0.109,0.953,-0.078
0.227,1.469,0.07
-0.297,1.531,-0.148
-0.48,1.289,-0.203
0.129,1.578,-0.121
0.348,0.922,-0.141
0.16,0.75,-0.137
0.211,0.844,-0.023
0.25,1.074,0.016
0.148,1.039,-0.059
0.121,0.906,-0.055
0.066,0.816,-0.043
-0.012,0.875,-0.035
-0.035,0.832,-0.031
-0.07,0.859,-0.008
-0.105,0.879,-0.004
-0.121,0.941,-0.031
-0.023,0.996,-0.023
-0.066,0.938,-0.016
-0.262,0.941,0.023
-0.121,1.133,0.027
0.316,1.223,-0.066
0.223,1.215,0
0.301,1.051,-0.016
0.418,1.102,0.004
0.215,1.363,-0.117
0.027,1.246,-0.066
0.027,0.988,-0.055
-0.004,0.734,-0.016
-0.023,0.789,0.004
0,0.816,-0.023
0.016,0.773,-0.023
-0.035,0.68,-0.047
-0.078,0.68,-0.094
-0.113,0.844,-0.027
0.035,1.039,0.02
0.074,1.324,0.059
-0.254,1.156,-0.074
-0.313,1.371,-0.121
0.035,1.508,-0.031
0.211,1.031,-0.117
0.113,0.734,-0.184
0.152,0.891,-0.008
0.313,1.055,0.008
0.242,0.969,-0.027
0.215,0.863,-0.012
0.145,0.918,-0.004
0.066,0.988,0.012
-0.012,0.965,-0.012
0.012,0.953,0.004
0.016,0.965,0.012
-0.039,0.945,0.035
-0.051,0.973,0.027
-0.016,1.012,0.016
0.02,0.965,0.031
0.051,0.93,0.09
0.059,0.938,0.094
-0.023,0.949,0.078
-0.023,1,0
0.059,1.137,-0.105
-0.066,1.195,-0.09
0.09,1.152,-0.129
0.203,1.109,-0.176
0.07,1.043,-0.254
-0.008,0.922,-0.25
-0.023,1.023,-0.164
-0.012,1.004,-0.109
-0.039,0.945,-0.129
-0.02,0.926,-0.105
0.012,0.855,-0.113
-0.008,0.871,-0.117
-0.027,0.891,-0.117
-0.055,0.875,-0.098
-0.105,0.848,-0.078
-0.156,0.863,-0.082
-0.199,0.93,-0.117
-0.145,0.934,-0.074
-0.047,0.973,-0.113
-0.004,1.063,-0.102
-0.168,1.203,-0.102
-0.219,1.094,-0.23
-0.059,1.082,-0.238
0.215,1.398,-0.086
0.059,1.148,-0.16
-0.051,0.77,-0.176
0.176,0.793,-0.082
0.258,1.063,-0.004
0.273,1.023,-0.016
0.234,0.918,-0.012
0.156,0.988,0
0.063,1.02,-0.008
0.023,0.988,-0.004
0.078,0.996,0.004
0.094,0.984,0.02
0.047,0.969,0
0.055,1,0.008
0.07,0.969,0.047
0.09,0.965,0.09
0.039,0.996,0.074
-0.055,1.02,0.039
-0.063,1,0.035
-0.008,0.984,0.004
0.023,1.035,-0.043
0.051,0.992,-0.031
0.086,0.98,0.004
0.066,0.965,-0.031
0.059,0.93,-0.098
0.066,0.953,-0.113
0.02,0.973,-0.168
-0.031,0.984,-0.184
-0.098,1.098,-0.223
-0.066,1.121,-0.164
-0.027,1.035,-0.18
-0.008,0.922,-0.137
0.02,0.918,-0.148
0.027,0.895,-0.125
0.07,0.922,-0.113
0.012,1.059,-0.086
-0.055,1.074,-0.117
-0.059,1.031,-0.148
0.031,0.992,-0.156
0.02,0.973,-0.129
0.016,0.961,-0.098
0.023,0.973,-0.082
0.012,0.98,-0.059
0.004,0.98,-0.066
-0.012,0.988,-0.098
-0.012,1,-0.055
0.02,0.996,-0.004
0.043,0.992,-0.016
0.031,0.969,0.004
0.023,0.953,0.023
0,1.012,0.016
-0.008,1.008,0.035
-0.012,0.992,0.039
-0.016,1.004,0.035
-0.02,1.023,0.035
-0.012,1.016,0.039
0.031,1.02,0.047
0.051,1.004,0.047
0.008,1.012,0
-0.012,1.043,-0.031
0.027,0.996,-0.035
0.07,1.004,0
0.063,0.984,0
0.074,0.949,-0.012
0.109,0.984,-0.051
0.086,1.016,-0.07
0.031,0.996,-0.051
0.016,0.965,-0.02
0.02,1.012,-0.043
0.035,0.996,-0.051
0.047,0.965,-0.051
0.047,0.984,-0.035
0.027,1.004,-0.039
0.016,0.996,-0.043
0.023,0.984,-0.031
0.043,0.984,-0.039
0.047,0.992,-0.043
0.031,1.004,-0.039
0.027,0.984,-0.039
0.027,0.992,-0.031
0.031,1.008,-0.023
0.035,0.996,-0.027
0.066,0.984,-0.016
0.078,0.992,-0.027
0.07,0.977,-0.02
0.059,0.992,-0.023
0.043,0.996,-0.023
0.035,1.004,-0.023
0.047,0.992,-0.023
0.055,0.977,-0.023
0.063,0.988,-0.02
0.066,0.984,-0.02
0.063,0.996,-0.035
0.059,0.992,-0.031
0.059,0.992,-0.035
0.074,1,-0.035
0.063,0.992,-0.047
0.063,0.984,-0.043
0.059,0.992,-0.047
0.074,0.992,-0.043
0.074,0.992,-0.047
0.082,0.988,-0.043
0.078,0.992,-0.051
0.078,0.992,-0.043
0.082,0.996,-0.043
0.09,0.973,-0.047
0.09,0.988,-0.043
0.086,0.98,-0.047
0.074,0.988,-0.043
0.078,0.992,-0.047
0.082,1.004,-0.047
0.086,0.984,-0.047
0.082,0.977,-0.051
0.066,1.008,-0.047
0.063,0.996,-0.043
0.063,0.996,-0.043
0.082,0.973,-0.031
0.082,0.984,-0.043
0.078,0.992,-0.039
0.07,0.988,-0.035
0.063,0.992,-0.035
0.066,0.992,-0.039
0.063,0.992,-0.039
0.066,0.988,-0.035
0.063,0.988,-0.043
0.066,0.984,-0.035
0.063,0.988,-0.047
0.047,0.992,-0.043
0.055,0.992,-0.047
0.059,0.992,-0.043
0.07,0.992,-0.047
0.082,0.98,-0.047
0.086,0.988,-0.039
0.094,0.988,-0.035
0.082,0.992,-0.043
0.082,0.992,-0.039
0.074,0.988,-0.031
0.074,0.988,-0.035
0.074,0.996,-0.031
0.086,0.988,-0.031
0.082,0.98,-0.043
0.082,0.984,-0.043
0.094,0.992,-0.039
0.098,1.004,-0.043
0.109,0.973,-0.035
0.117,0.992,-0.035
0.121,0.996,-0.035
0.117,0.988,-0.039
0.125,0.992,-0.031
0.137,1.004,-0.047
0.156,0.977,-0.023
0.137,0.977,-0.074
0.129,0.988,-0.031
0.141,0.992,-0.02
0.113,1.016,-0.023
0.102,1,-0.027
0.102,0.98,-0.043
0.098,0.988,-0.039
0.063,0.988,-0.063
0.063,0.969,-0.066
0.102,0.992,-0.039
0.051,1.016,-0.063
0.031,0.996,-0.082
0.031,0.988,-0.074
0.055,0.977,-0.082
0.055,1.004,-0.09
0.066,0.988,-0.078
0.066,0.988,-0.09
0.059,0.988,-0.09
0.043,0.969,-0.09
0.027,1,-0.09
0.012,0.984,-0.109
0.012,0.969,-0.117
0.035,0.969,-0.125
0.043,0.996,-0.102
0.023,1.008,-0.109
0.02,0.977,-0.113
0.027,0.977,-0.113
0.023,0.98,-0.125
0.023,0.973,-0.109
0.039,0.992,-0.113
0.055,0.977,-0.105
0.055,0.965,-0.105
0.055,0.988,-0.109
0.047,0.992,-0.105
0.051,0.996,-0.109
0.051,0.984,-0.102
0.047,0.992,-0.109
0.047,0.988,-0.109
0.059,0.988,-0.113
0.07,0.98,-0.098
0.063,0.98,-0.113
0.063,0.988,-0.105
0.066,0.988,-0.113
0.07,0.988,-0.102
0.074,0.988,-0.113
0.07,0.98,-0.113
0.066,0.984,-0.125
0.066,0.984,-0.117
0.066,0.984,-0.121
0.063,0.969,-0.113
0.07,0.984,-0.125
0.07,1,-0.117
0.07,0.98,-0.121
0.07,0.973,-0.113
0.059,0.992,-0.113
0.059,1.004,-0.117
0.055,0.977,-0.117
0.047,0.965,-0.117
0.055,0.988,-0.113
0.055,0.988,-0.105
0.059,0.961,-0.113
0.055,0.984,-0.098
0.059,1.004,-0.113
0.043,0.977,-0.113
0.047,0.977,-0.109
0.051,1.004,-0.105
0.066,0.996,-0.102
0.074,0.965,-0.105
0.066,0.98,-0.098
0.066,0.996,-0.098
0.066,0.988,-0.094
0.078,0.984,-0.086
0.07,0.988,-0.07
0.063,0.988,-0.082
0.074,0.988,-0.074
0.086,0.992,-0.055
0.094,0.992,-0.066
0.082,0.973,-0.07
0.086,0.992,-0.063
0.086,1.008,-0.066
0.09,0.984,-0.066
0.074,0.984,-0.055
0.059,0.992,-0.066
0.059,1.004,-0.051
0.082,0.992,-0.051
0.117,0.992,-0.039
0.121,0.996,-0.039
0.117,0.996,-0.035
0.105,0.984,-0.059
0.125,0.98,-0.043
0.098,0.965,-0.066
0.082,0.992,-0.059
0.121,0.98,-0.039
0.137,0.965,-0.031
0.113,0.988,-0.023
0.125,0.996,-0.016
0.137,0.984,-0.012
0.129,0.977,-0.02
0.125,0.969,-0.016
0.125,0.992,-0.023
0.09,0.992,-0.02
0.09,0.984,-0.023
0.102,0.988,-0.016
0.113,0.984,-0.02
0.121,0.988,-0.004
0.109,0.988,-0.012
0.094,0.988,-0.008
0.09,0.984,-0.008
0.082,0.988,-0.008
0.07,1.004,-0.004
0.074,0.992,0
0.078,1,-0.004
0.09,0.984,0.008
0.098,0.984,0.012
0.109,0.988,0.02
0.121,0.988,0.02
0.125,0.984,0.02
0.121,0.992,0.023
0.117,0.992,0.023
0.121,0.984,0.027
0.129,0.992,0.023
0.148,0.977,0.027
0.133,0.977,0.023
0.102,0.984,0.016
0.105,1.008,0.023
0.102,0.992,0.023
0.102,0.992,0.023
0.098,0.977,0.023
0.121,0.996,0.031
0.148,0.969,0.031
0.16,0.988,0.035
0.152,0.988,0.027
0.129,0.977,0.031
0.141,0.98,0.02
0.16,0.977,0.02
0.141,0.984,0.016
0.121,0.984,0.02
0.121,0.992,0.02
0.109,0.984,0.016
0.121,0.988,0.012
0.121,0.984,0.02
0.117,0.984,0.02
0.094,0.988,0.008
0.09,0.98,0.004
0.102,0.98,0.004
0.102,0.98,0.004
0.094,0.992,-0.008
0.078,1.004,0
0.07,0.984,-0.004
0.074,0.98,0.012
0.074,0.984,0
0.078,0.988,-0.004
0.086,0.992,0
0.078,1,-0.004
0.098,0.992,0
0.094,0.988,0
0.102,0.984,0.004
0.102,0.992,0.012
0.102,0.98,0.012
0.09,1,0.02
0.094,0.98,0.016
0.109,0.984,0.016
0.141,0.992,0.02
0.16,0.984,0.031
0.164,0.984,0.02
0.156,0.988,0.023
0.168,0.977,0.02
0.164,0.977,0.023
0.152,0.984,0.016
0.129,0.996,0.004
0.125,0.973,0.004
0.102,0.992,0
0.094,0.988,0
0.098,0.98,0.008
0.094,0.988,0
0.098,0.992,0.008
0.109,0.988,0.012
0.105,0.973,0
0.098,0.984,-0.004
0.109,0.984,-0.012
0.125,0.98,-0.012
0.121,0.98,-0.008
0.109,0.988,-0.016
0.121,0.988,-0.016
0.141,0.984,-0.012
0.137,0.988,-0.012
0.129,0.992,0
0.125,0.98,0.004
0.121,0.988,0.012
0.125,0.984,0.012
0.141,0.992,0.016
0.137,0.977,0.008
0.102,0.977,0
0.055,1.004,-0.004
0.055,0.992,-0.012
0.078,0.984,0.008
0.102,0.98,0.016
0.125,0.98,0.012
0.129,0.988,0.012
0.129,1.004,-0.004
0.129,0.98,-0.012
0.125,0.992,-0.012
0.125,0.988,-0.016
0.109,0.984,-0.012
0.09,0.992,-0.004
0.082,0.988,0
0.059,0.977,0
0.051,0.992,0
0.078,0.996,-0.004
0.109,0.98,0.004
0.129,0.969,0
0.129,0.984,0
0.129,0.988,0
0.129,0.988,-0.004
0.125,1,-0.008
0.133,0.98,-0.016
0.137,0.984,-0.004
0.129,0.98,0
0.129,0.98,0
0.129,0.984,0
0.129,0.98,0
0.129,0.988,0.008
0.133,0.984,0.016
0.125,0.984,0.008
0.105,0.988,0.004
0.078,0.984,-0.004
0.063,0.992,-0.004
0.086,0.984,-0.008
0.113,0.992,0.012
0.133,0.988,0
0.117,0.988,0.004
0.105,0.969,0
0.098,0.992,-0.008
0.109,0.992,-0.004
0.117,0.973,-0.004
0.113,0.961,-0.012
0.09,1.012,-0.012
0.117,0.973,-0.016
0.141,0.977,-0.012
0.152,0.957,0
0.117,0.977,0.004
0.074,0.98,-0.047
0.066,0.961,0
0.078,0.969,0.02
0.066,0.977,0.031
0.074,0.945,0.035
0.063,1.027,0.047
-0.008,1.086,0.055
0.02,1.027,0.074
0.039,0.977,0.066
-0.051,0.988,0.074
-0.117,0.98,0.07
-0.082,0.98,0.074
-0.102,0.988,0.066
-0.125,0.973,0.066
-0.082,1.016,0.063
-0.039,0.953,0.047
0.02,0.984,0.07
0.07,1,0.094
0.07,1,0.117
0.02,1.039,0.148
-0.027,1.117,0.18
-0.055,1.129,0.105
-0.027,1.172,0.027
0.051,1.242,0.027
0.105,1.129,0.031
0.18,0.953,-0.063
0.215,0.844,-0.113
0.172,0.922,0.004
0.121,1.051,-0.043
0.098,1.016,-0.012
0.063,0.836,-0.016
0.031,0.883,-0.047
-0.02,1.043,-0.051
-0.094,1,-0.07
-0.051,0.867,-0.063
0.016,0.813,-0.055
0.027,0.781,-0.063
-0.047,0.773,-0.07
-0.207,0.781,-0.066
-0.41,0.898,-0.129
-0.195,1.016,0.02
0.121,1.367,0.023
-0.199,1.391,-0.016
-0.328,1,-0.145
0.305,1.215,-0.223
0.508,1.406,-0.141
0.02,0.75,-0.176
0.02,0.703,-0.137
0.215,1.051,-0.035
0.285,1.063,-0.055
0.18,0.891,-0.102
0.086,0.941,-0.039
0.047,0.957,-0.035
0.016,0.898,-0.063
0,0.855,-0.078
-0.051,0.871,-0.031
-0.035,0.883,0
-0.008,0.969,0.023
0.016,0.957,-0.035
-0.113,0.887,0.043
-0.152,0.973,0.047
-0.125,1.094,0.008
0.047,1.25,-0.082
0.238,1.297,-0.168
0.332,1.141,0.035
0.227,1.258,-0.105
0.109,1.293,-0.145
-0.043,1.172,-0.082
-0.027,0.945,-0.063
0.031,0.848,-0.043
0.066,0.801,-0.055
0.043,0.754,-0.082
0.012,0.703,-0.094
-0.004,0.664,-0.129
-0.031,0.664,-0.121
-0.141,0.695,-0.152
-0.285,0.813,-0.113
-0.152,1.047,-0.082
0.094,1.551,0.074
-0.367,1.504,-0.191
-0.629,1.242,-0.168
-0.102,1.074,-0.266
0.508,1.398,-0.176
0.316,0.91,-0.18
0.086,0.688,-0.195
0.176,0.84,-0.078
0.223,1.031,-0.016
0.176,0.887,-0.063
0.082,0.836,-0.039
-0.043,0.91,-0.023
-0.195,0.953,-0.07
-0.199,0.918,-0.059
-0.16,0.914,-0.047
-0.117,0.898,-0.008
-0.051,0.891,-0.012
0.082,0.848,-0.027
-0.031,0.961,0.039
-0.285,1.121,0.07
-0.211,1.313,0.078
0.121,1.32,-0.121
0.34,1.164,0.008
0.328,1.145,0.23
0.262,1.102,-0.102
0.098,1.324,-0.137
-0.07,1.227,-0.043
0.035,0.918,-0.012
0.031,0.719,0.031
0.074,0.621,-0.039
0.082,0.664,-0.035
0.012,0.676,-0.043
-0.137,0.609,-0.125
-0.285,0.641,-0.141
-0.328,0.887,-0.156
0.16,1.301,0.043
-0.063,1.922,-0.16
-0.84,1.063,-0.152
0.063,1.133,-0.297
0.699,1.449,0.004
0.336,0.926,-0.168
-0.066,0.789,-0.129
0.102,0.922,0.031
0.324,0.977,0.016
0.25,0.77,-0.066
0.113,0.734,-0.059
-0.074,0.824,-0.055
-0.199,0.84,-0.027
-0.203,0.824,0.051
-0.066,0.883,0.055
0.043,0.969,-0.02
0.039,1.047,0.008
-0.336,0.918,0.086
-0.137,1.188,0.016
0.41,1.383,-0.094
0.574,1.109,0.223
0.461,1.082,0.32
0.363,1.273,-0.043
0.016,1.566,-0.148
-0.176,1.191,-0.027
-0.18,0.742,-0.023
-0.23,0.641,0.051
-0.098,0.57,-0.012
0.051,0.637,0.027
0.105,0.605,-0.008
-0.07,0.547,-0.105
-0.23,0.781,-0.133
0.016,1.082,-0.023
0.109,2.105,-0.055
-0.68,1.258,-0.18
-0.121,1.301,-0.266
0.359,1.254,-0.016
0.391,0.766,-0.09
0.164,0.793,-0.164
0.191,0.902,-0.047
0.145,0.984,-0.07
0.074,0.898,-0.082
0.055,0.781,-0.043
-0.031,0.828,-0.031
-0.094,0.836,-0.004
-0.125,0.77,0.055
-0.121,0.945,-0.039
-0.031,0.984,-0.016
-0.164,1.02,0.078
-0.512,0.863,0.027
0.141,1.34,0
0.727,1.246,-0.039
0.504,1.191,0.32
0.336,1.465,-0.02
0.18,1.605,-0.117
-0.023,1.297,-0.063
-0.059,0.824,-0.031
-0.016,0.566,0.051
0.055,0.488,0.035
0.102,0.496,-0.043
0.098,0.578,-0.113
-0.07,0.598,-0.152
-0.211,0.738,-0.211
-0.266,1.063,-0.07
0.063,1.559,-0.086
-0.363,1.656,-0.133
-0.496,1.059,-0.301
0.383,1.602,-0.055
0.535,1.238,0.016
0.207,0.906,-0.117
0.219,0.77,-0.031
0.336,0.848,0.035
0.207,1.02,-0.02
0.109,0.895,-0.02
-0.012,0.723,-0.063
-0.063,0.688,-0.074
-0.059,0.719,-0.07
-0.145,0.824,0.008
-0.156,1,-0.031
-0.008,1.059,-0.137
-0.098,1.105,-0.055
-0.43,0.973,-0.066
-0.102,1.219,0.047
0.426,1.375,0.102
0.434,1.176,0.195
0.262,1.18,0.16
0.285,1.324,-0.004
0.066,1.281,-0.02
-0.164,1.027,-0.012
-0.133,0.668,0.043
-0.035,0.637,0.063
0.016,0.613,0.063
0.074,0.715,0.066
0.109,0.621,0.039
0.074,0.543,-0.027
0.012,0.875,-0.223
0.234,1.184,0.082
-0.039,1.953,-0.035
-0.719,1.094,-0.199
-0.098,1.328,-0.25
0.582,1.254,-0.059
0.508,0.891,-0.152
0.148,0.75,-0.125
0.117,0.879,-0.012
0.109,0.992,-0.082
0.074,0.949,-0.094
0.031,0.746,-0.09
-0.008,0.734,-0.055
-0.059,0.738,0.004
-0.094,0.719,0.066
0.031,0.953,0.008
0.117,1.082,0.008
-0.191,1.086,0.051
-0.578,0.969,0.047
-0.066,1.316,0.039
0.48,1.313,-0.07
0.48,1.039,0.289
0.332,1.328,0.086
0.289,1.5,-0.102
0.023,1.402,-0.055
-0.105,0.941,-0.047
-0.082,0.578,0.035
-0.027,0.504,0.059
0.09,0.504,-0.023
0.121,0.637,-0.027
0.012,0.633,-0.039
-0.152,0.699,-0.18
-0.141,0.988,-0.105
0.25,1.602,0.02
-0.41,1.668,-0.203
-0.48,1.121,-0.352
0.215,1.508,-0.125
0.422,0.934,-0.086
0.176,0.801,-0.148
0.152,0.855,-0.043
0.211,1.008,0.016
0.156,0.934,-0.063
0.141,0.762,-0.039
0.078,0.734,-0.047
-0.051,0.828,-0.008
-0.176,0.766,0.031
-0.215,0.867,0.031
-0.102,1.031,-0.047
-0.133,1.074,-0.027
-0.469,0.832,0.121
-0.168,1.113,0.074
0.449,1.379,-0.148
0.574,1.113,0.316
0.414,1.305,0.055
0.328,1.547,-0.059
0.039,1.504,-0.074
-0.102,1.039,-0.055
-0.117,0.566,-0.004
-0.098,0.438,0.047
0.027,0.453,-0.027
0.113,0.605,-0.027
-0.023,0.59,-0.055
-0.141,0.641,-0.219
-0.156,1.027,-0.078
0.219,1.879,0.09
-0.492,1.641,-0.199
-0.422,1.102,-0.422
0.359,1.457,-0.105
0.484,0.984,-0.074
0.195,0.848,-0.148
0.199,0.84,-0.051
0.242,0.961,0.012
0.133,0.945,-0.051
0.07,0.773,-0.063
-0.02,0.723,-0.063
-0.082,0.75,-0.027
-0.121,0.797,0.051
-0.152,0.91,0.016
-0.078,1.012,-0.051
-0.121,0.996,-0.035
-0.469,0.934,0.113
-0.188,1.191,0.027
0.406,1.336,-0.184
0.563,1.168,0.313
0.426,1.383,-0.039
0.297,1.566,-0.184
-0.078,1.441,-0.098
-0.098,0.969,-0.059
-0.047,0.57,0.039
0.012,0.43,0.02
0.078,0.453,-0.027
0.137,0.543,-0.047
-0.008,0.578,-0.102
-0.156,0.688,-0.172
-0.141,0.992,-0.094
0.25,1.715,-0.016
-0.555,1.66,-0.25
-0.441,1.195,-0.438
0.34,1.578,-0.063
0.422,0.898,-0.086
0.16,0.762,-0.141
0.234,0.848,-0.043
0.285,0.969,0.02
0.188,0.938,-0.035
0.105,0.82,-0.051
-0.023,0.836,-0.051
-0.137,0.836,-0.051
-0.152,0.813,-0.016
-0.199,0.852,0.027
-0.125,0.922,-0.078
-0.027,0.984,-0.055
-0.258,0.953,0.156
-0.426,1.051,0.078
0.188,1.309,-0.188
0.492,1.336,0.113
0.379,1.195,0.148
0.281,1.281,-0.082
0.145,1.398,-0.145
-0.055,1.18,-0.078
-0.012,0.77,-0.059
-0.023,0.68,0.016
-0.012,0.594,-0.02
0.027,0.664,-0.051
0.047,0.672,-0.082
-0.094,0.559,-0.082
-0.16,0.586,-0.172
-0.145,1,-0.063
0.324,1.465,0.109
-0.336,1.609,-0.156
-0.613,1.219,-0.305
0.09,1.676,-0.137
0.395,0.898,-0.188
0.145,0.699,-0.172
0.23,0.875,-0.07
0.328,1.125,0.023
0.266,0.988,-0.055
0.203,0.832,-0.051
0.137,0.809,-0.027
-0.012,0.855,-0.027
-0.063,0.809,-0.02
-0.117,0.875,0.008
-0.109,0.957,0.02
-0.047,0.98,-0.043
-0.066,0.938,-0.023
-0.258,0.953,0.031
-0.203,1.074,-0.008
0.242,1.254,-0.207
0.395,1.293,-0.027
0.422,1.141,0.039
0.422,1.191,-0.09
0.152,1.32,-0.23
-0.059,1.188,-0.145
-0.039,0.895,-0.066
-0.047,0.711,-0.02
-0.047,0.625,-0.039
0.043,0.648,-0.066
0.094,0.676,-0.07
0.039,0.547,-0.066
0.012,0.527,-0.094
0.008,0.789,-0.055
0.016,1.273,0.051
0.035,1.602,0.301
-0.551,1.352,-0.191
-0.156,1.379,-0.055
0.313,1.195,-0.184
0.508,1.051,-0.168
0.473,1.16,-0.059
0.438,0.762,-0.109
0.391,0.777,-0.004
0.348,1.012,0.141
0.219,1.02,0.148
0.105,0.875,0.121
0.039,0.934,0.141
0.137,1.016,0.18
0.195,0.988,0.254
0.078,0.945,0.234
0.023,0.984,0.219
0.063,0.988,0.211
0.117,1.047,0.293
0.043,1,0.348
-0.012,1.023,0.301
-0.125,1.074,0.262
-0.148,0.988,0.227
-0.008,0.883,0.105
0.074,0.957,0.008
0.086,1.09,-0.063
0.109,1.055,-0.168
0.125,1.059,-0.191
0.063,1.016,-0.148
-0.039,0.984,-0.188
-0.016,0.934,-0.188
0,0.879,-0.227
0.016,0.879,-0.176
0.063,0.871,-0.156
0.137,0.93,-0.219
0.164,0.934,-0.117
0.129,0.922,-0.148
0.113,0.961,-0.23
0.098,0.969,-0.094
0.09,0.992,-0.148
0.059,0.992,-0.129
0.047,1,-0.199
0.133,1.074,-0.121
0.105,1.043,-0.168
0.121,0.926,-0.102
0.109,0.914,-0.063
0.109,0.973,-0.066
0.094,1.043,-0.035
0.113,1.02,-0.023
0.09,1.023,-0.016
0.074,0.977,-0.02
0.109,0.98,0.023
0.105,0.984,0.027
0.066,0.992,0.047
0.055,0.996,0.027
0,1.02,0.027
0.016,1.012,0.016
0.012,1,0.012
0.027,1.027,0.02
0.137,0.977,0.039
0.168,0.965,0.023
0.098,0.988,-0.004
0.035,1,-0.031
0.039,0.988,-0.023
0.051,1,-0.012
0.039,1,-0.023
0.039,1,-0.031
0.059,0.988,-0.051
0.059,1,-0.047
0.055,0.992,-0.043
0.055,0.98,-0.051
0.031,0.988,-0.055
0.02,0.996,-0.051
0.035,1.004,-0.047
0.059,0.992,-0.039
0.043,0.969,-0.035
0.031,0.992,-0.016
0.012,0.996,-0.023
-0.012,1.016,-0.02
-0.004,1,-0.027
0.031,0.988,-0.02
0.074,0.98,-0.023
0.082,1.004,-0.016
0.07,0.988,-0.016
0.043,0.992,-0.023
0.031,1,-0.016
0.023,0.988,-0.016
0.027,0.996,-0.016
0.02,0.988,-0.02
0.023,0.992,-0.027
0.02,0.992,-0.02
0.027,0.996,-0.027
0.043,1,-0.016
0.043,0.992,-0.02
0.047,0.996,-0.027
0.035,0.996,-0.023
0.027,0.992,-0.023
0.027,0.992,-0.031
0.027,0.992,-0.027
0.023,0.988,-0.027
0.023,1.008,-0.027
0.035,0.992,-0.023
0.031,0.996,-0.027
0.027,0.992,-0.023
0.023,0.992,-0.02
0.031,0.988,-0.023
0.031,0.996,-0.023
0.035,0.992,-0.031
0.043,0.996,-0.027
0.039,0.984,-0.031
0.031,0.996,-0.035
0.035,0.992,-0.031
0.027,0.996,-0.031
0.008,0.98,-0.023
-0.008,0.992,-0.023
-0.008,1.012,-0.023
0.012,1,-0.027
0.035,0.992,-0.031
0.063,0.992,-0.023
0.066,0.98,-0.027
0.043,1,-0.031
0.031,1,-0.027
0.023,0.992,-0.035
0.023,0.996,-0.039
0.02,0.996,-0.031
0.027,0.992,-0.039
0.027,0.996,-0.031
0.023,0.992,-0.035
0.027,0.996,-0.027
0.035,0.992,-0.023
0.039,1.004,-0.035
0.031,0.996,-0.027
0.031,0.996,-0.031
0.035,0.992,-0.027
0.031,0.992,-0.035
0.027,0.996,-0.027
0.031,0.992,-0.027
0.027,0.992,-0.031
0.031,0.98,-0.027
0.035,1,-0.023
0.035,0.996,-0.027
0.039,0.996,-0.027
0.035,0.988,-0.031
0.031,0.992,-0.031
0.016,0.996,-0.031
0,1.004,-0.031
-0.027,0.992,-0.027
-0.012,0.996,-0.035
0.031,0.996,-0.027
0.059,0.992,-0.027
0.043,0.992,-0.035
0.043,0.992,-0.035
0.027,0.996,-0.039
0.016,0.988,-0.039
0.016,0.992,-0.047
0.008,0.996,-0.039
0.008,0.992,-0.039
0.02,0.992,-0.027
0.023,0.996,-0.035
0.027,0.992,-0.031
0.035,1.004,-0.031
0.039,0.992,-0.039
0.023,0.996,-0.039
0.016,0.996,-0.047
0.008,0.992,-0.043
0.012,0.992,-0.043
0.023,0.992,-0.043
0.027,0.996,-0.039
0.027,0.988,-0.035
0.035,0.992,-0.031
0.039,0.988,-0.027
0.035,0.992,-0.031
0.027,1.004,-0.031
0.043,0.992,-0.031
0.051,0.996,-0.035
0.047,1.004,-0.031
0.051,0.992,-0.031
0.039,0.992,-0.035
0.02,0.996,-0.031
-0.02,0.996,-0.031
-0.031,1.004,-0.027
-0.008,0.996,-0.031
0.027,0.992,-0.031
0.063,0.992,-0.043
0.063,0.996,-0.039
0.047,0.992,-0.043
0.02,0.992,-0.047
0.016,0.992,-0.051
0.02,0.996,-0.051
0.016,0.996,-0.039
0.02,1.004,-0.047
0.023,0.992,-0.043
0.027,0.992,-0.031
0.023,0.996,-0.031
0.027,0.992,-0.031
0.039,0.992,-0.031
0.031,0.992,-0.039
0.035,0.992,-0.043
0.031,0.996,-0.039
0.023,0.992,-0.039
0.023,0.992,-0.051
0.027,0.988,-0.039
0.027,0.996,-0.043
0.027,0.996,-0.039
0.039,0.992,-0.035
0.035,1.012,-0.031
0.039,0.996,-0.043
0.035,0.992,-0.031
0.027,0.992,-0.035
0.027,1,-0.031
0.035,0.996,-0.035
0.043,0.992,-0.039
0.047,0.988,-0.031
0.031,0.996,-0.043
0.023,0.992,-0.047
-0.008,0.992,-0.039
-0.012,0.996,-0.039
0,0.992,-0.039
0.008,0.984,-0.043
0.023,0.996,-0.047
0.043,1,-0.051
0.035,0.992,-0.051
0.027,0.992,-0.051
0.016,0.996,-0.051
0.016,0.996,-0.051
0.004,0.996,-0.051
0.004,0.992,-0.047
0.02,0.988,-0.047
0.023,0.996,-0.047
0.027,0.988,-0.047
0.031,0.996,-0.047
0.023,0.992,-0.043
0.023,0.992,-0.047
0.016,0.992,-0.051
0.016,0.988,-0.047
0.012,1.004,-0.051
0.008,0.996,-0.051
0.02,0.992,-0.051
0.02,0.988,-0.051
0.023,0.992,-0.051
0.027,0.992,-0.051
0.02,1.004,-0.047
0.016,0.996,-0.051
0.023,0.992,-0.051
0.02,0.988,-0.051
0.027,0.996,-0.043
0.027,1.004,-0.035
0.031,0.996,-0.043
0.027,0.988,-0.039
0.035,0.992,-0.043
0.031,1.004,-0.047
0.023,1,-0.043
0.016,0.996,-0.043
0,0.996,-0.051
0.004,0.996,-0.047
0.016,0.988,-0.047
0.035,0.988,-0.043
0.039,0.992,-0.051
0.031,0.992,-0.051
0.023,0.996,-0.051
0.027,0.996,-0.043
0.027,0.992,-0.047
0.02,0.988,-0.043
0.023,0.992,-0.051
0.027,0.996,-0.039
0.031,1,-0.047
0.031,0.996,-0.047
0.043,0.992,-0.043
0.027,0.992,-0.043
0.027,1,-0.031
0.027,0.996,-0.043
0.035,0.988,-0.047
0.035,0.996,-0.047
0.035,0.988,-0.047
0.035,0.992,-0.047
0.035,0.988,-0.051
0.027,0.988,-0.039
0.027,0.992,-0.043
0.027,0.992,-0.047
0.027,0.996,-0.031
0.031,1.004,-0.043
0.031,0.996,-0.035
0.039,0.988,-0.035
0.039,0.992,-0.035
0.051,1,-0.039
0.051,0.992,-0.047
0.043,0.992,-0.043
0.043,0.988,-0.035
0.016,0.992,-0.047
-0.012,1,-0.039
-0.008,0.996,-0.047
0.023,0.992,-0.043
0.051,0.984,-0.039
0.066,0.988,-0.035
0.059,0.996,-0.031
0.035,1.004,-0.039
0.016,0.992,-0.043
0.008,0.996,-0.043
0.008,0.992,-0.039
0.008,0.996,-0.035
0.023,0.992,-0.035
0.043,0.992,-0.031
0.031,0.992,-0.031
0.02,0.996,-0.035
0.023,0.992,-0.031
0.023,0.992,-0.039
0.027,0.996,-0.035
0.035,0.992,-0.043
0.027,0.992,-0.047
0.023,0.996,-0.047
0.027,1,-0.047
0.027,0.996,-0.043
0.027,0.988,-0.031
0.027,1,-0.035
0.023,0.988,-0.027
0.023,0.996,-0.031
0.023,0.992,-0.027
0.027,0.988,-0.031
0.043,1,-0.027
0.051,0.996,-0.031
0.047,0.996,-0.035
0.051,1,-0.035
0.02,0.988,-0.031
-0.023,0.992,-0.043
-0.027,1.008,-0.043
0.008,1,-0.043
0.043,0.988,-0.047
0.066,0.992,-0.039
0.055,0.988,-0.039
0.012,1.004,-0.043
-0.008,0.988,-0.047
0,0.984,-0.043
0.004,0.996,-0.039
0.004,0.992,-0.047
0.02,0.992,-0.043
0.031,0.992,-0.039
0.027,0.992,-0.031
0.031,0.992,-0.035
0.027,0.996,-0.043
0.016,0.996,-0.035
-0.012,1.004,-0.035
0,1,-0.047
0.012,0.996,-0.043
0.035,0.988,-0.051
0.039,0.992,-0.051
0.02,0.992,-0.047
0.012,0.992,-0.051
0.012,0.992,-0.051
0.016,0.984,-0.047
0.02,1,-0.039
0.023,0.992,-0.035
0.027,0.996,-0.031
0.031,0.992,-0.035
0.027,0.996,-0.035
0.043,0.996,-0.043
0.051,0.996,-0.039
0.039,0.992,-0.031
0.035,0.992,-0.039
0.043,0.992,-0.035
0.051,0.992,-0.039
0.043,0.988,-0.039
0.016,0.992,-0.027
-0.016,1,-0.035
-0.008,0.992,-0.043
0.02,0.992,-0.043
0.051,0.988,-0.043
0.059,0.988,-0.047
0.043,0.996,-0.043
0.027,0.988,-0.043
0.02,0.992,-0.047
0.02,1.008,-0.047
0.016,0.992,-0.047
0.027,0.996,-0.047
0.027,0.996,-0.047
0.035,0.996,-0.051
0.031,0.996,-0.043
0.031,0.992,-0.051
0.031,0.992,-0.039
0.023,0.996,-0.039
0.027,0.988,-0.043
0.027,0.996,-0.039
0.031,0.992,-0.035
0.023,0.992,-0.035
0.023,0.996,-0.039
0.023,0.992,-0.039
0.035,1,-0.039
0.027,0.996,-0.039
0.039,0.992,-0.043
0.035,0.984,-0.035
0.027,1.004,-0.043
0.027,0.996,-0.035
0.035,0.992,-0.043
0.035,0.992,-0.031
0.047,1,-0.039
0.051,0.996,-0.039
0.055,0.992,-0.051
0.07,0.992,-0.027
0.082,0.992,-0.031
0.066,0.973,-0.051
0.031,0.988,-0.047
0.047,0.992,-0.051
0.066,1,-0.063
0.098,0.988,-0.055
0.125,0.992,-0.055
0.098,0.992,-0.047
0.035,0.977,-0.047
0.016,0.988,-0.039
-0.043,1.016,-0.004
-0.051,0.98,-0.039
0.039,0.938,-0.035
0.188,0.926,-0.031
0.313,0.859,-0.035
0.379,0.75,0.035
0.309,0.703,-0.008
0.137,0.684,-0.004
0.055,0.688,-0.031
-0.09,0.738,-0.004
-0.063,0.867,-0.055
-0.063,0.867,-0.094
-0.094,1.055,-0.164
-0.074,1.355,-0.211
0.176,1.387,-0.281
0.332,1.191,-0.207
0.199,1.566,-0.219
0.066,2.348,-0.227
-0.137,3.008,-0.258
0.004,2.863,-0.223
0.367,2.125,-0.141
0.785,1.047,-0.008
0.332,0.219,0.039
0.508,-0.473,0.152
0,-0.617,-0.168
-0.008,-0.113,-0.047
-0.07,0.156,0.055
-0.02,0.129,0.027
-0.039,0.012,0.012
-0.121,-0.094,-0.035
-0.02,-0.066,-0.129
0.258,-0.082,-0.039
0.438,-0.035,0.09
0.461,0.25,0.25
0.797,1.941,-0.371
-0.09,3.16,-0.219
-0.223,1.582,-0.176
-0.363,2.055,-0.074
-0.227,1.855,-0.086
0.203,1.41,-0.055
0.215,1.273,-0.098
-0.012,1.316,-0.066
-0.043,1.137,-0.012
0.09,0.836,-0.016
0.195,0.676,-0.008
0.215,0.582,-0.027
0.207,0.539,-0.059
0.156,0.469,-0.02
0.098,0.48,0.004
0.148,0.555,0.031
0.223,0.758,-0.102
0.168,0.984,-0.109
0,1.133,-0.113
-0.145,1.313,-0.191
-0.117,1.355,-0.211
0.109,1.379,-0.238
0.137,1.582,-0.219
0.008,2.18,-0.215
-0.234,2.445,-0.262
-0.336,2.922,-0.23
0.117,2.516,-0.211
0.785,1.578,-0.238
0.352,0.508,0.039
0.418,-0.254,0.059
0.266,-0.73,0.035
0.133,-0.285,-0.109
-0.086,0.02,-0.027
-0.078,0.148,-0.016
-0.008,0.078,0.012
0.016,-0.039,-0.039
0.066,-0.09,0.031
0.121,-0.086,0.031
0.148,-0.02,0.02
-0.012,0.105,0.031
0.125,0.391,0.059
0.461,1.82,-0.289
0.215,3.133,-0.105
0.059,2.492,-0.055
-0.305,1.848,-0.199
-0.184,1.785,-0.188
0.105,1.48,-0.078
0.059,1.348,-0.055
0,1.129,-0.066
0.02,0.875,-0.012
0.117,0.629,-0.02
0.238,0.488,-0.043
0.297,0.477,-0.027
0.324,0.594,-0.012
0.227,0.68,0.047
0.242,0.664,0.008
0.078,0.641,-0.004
0.016,0.77,-0.008
0.035,0.926,-0.004
-0.008,0.965,-0.117
0.066,1.18,-0.184
0.039,1.305,-0.156
0.164,1.246,-0.172
0.059,1.328,-0.07
-0.129,2.047,-0.105
-0.098,2.613,-0.094
-0.113,3.086,-0.098
0.043,2.492,-0.152
0.488,1.629,-0.234
0.359,0.723,0.004
0.34,-0.156,0.039
0.266,-0.707,0.098
-0.02,-0.52,-0.066
-0.07,0.059,-0.012
-0.078,0.293,-0.012
-0.047,0.18,-0.051
-0.012,-0.008,-0.055
0.047,-0.121,-0.055
0.09,-0.129,0.02
0.176,-0.066,0.031
0.055,-0.039,0.066
0.133,0.738,-0.172
-0.18,2.426,-0.316
0.133,3.488,-0.18
0.047,2.34,-0.145
-0.211,1.863,-0.219
-0.18,1.613,-0.152
0.035,1.148,-0.051
0.152,0.879,-0.063
0.188,0.746,-0.059
0.184,0.688,-0.016
0.152,0.648,-0.004
0.086,0.758,-0.02
0.047,0.953,-0.027
0,1.059,-0.063
-0.008,0.988,-0.027
-0.055,0.988,-0.035
-0.098,0.98,-0.07
-0.055,0.973,-0.059
-0.047,0.953,-0.031
-0.004,0.988,-0.012
0.086,1.023,0.031
0.117,0.973,0.027
0.055,0.973,0.063
-0.02,0.992,0.047
-0.059,1.008,0.027
-0.039,0.984,0.016
0.012,0.98,-0.004
0.023,0.988,0.016
0.059,1.004,-0.004
0.086,0.992,-0.008
0.078,1.004,-0.012
0.098,0.973,-0.008
0.105,0.969,-0.004
0.051,1.016,-0.008
0.008,1.039,-0.012
-0.039,1.004,0
-0.078,0.938,0
-0.109,0.98,-0.023
-0.094,1.059,-0.012
0.016,1.004,0.004
0.121,0.988,0.012
0.129,0.977,0.004
0.098,0.988,0.016
0.016,1.008,-0.004
-0.008,1.008,-0.012
-0.016,0.996,-0.004
-0.012,0.973,-0.016
0.012,0.988,-0.012
0,0.992,-0.004
-0.008,1,-0.012
-0.016,1.008,-0.004
-0.027,1.004,0
-0.039,1.004,0
-0.039,1.004,-0.004
-0.047,1.004,-0.004
-0.047,0.992,-0.008
-0.039,0.992,-0.012
-0.008,0.98,-0.008
0.016,1.004,-0.02
0.008,0.996,-0.02
0.016,0.992,-0.016
0.027,1.016,-0.008
0.008,0.996,-0.027
-0.043,1.012,-0.039
-0.055,0.996,-0.031
-0.039,0.996,-0.027
-0.004,0.969,-0.031
0.023,0.969,-0.023
0.027,1.004,-0.023
0.008,0.996,-0.039
0.016,1.008,-0.031
0.02,1,-0.039
0.035,0.988,-0.039
0.02,0.992,-0.023
0.004,0.996,-0.027
-0.031,0.984,-0.023
-0.07,0.996,-0.016
-0.086,1.012,-0.027
-0.039,0.996,-0.016
0.008,0.992,-0.023
0.02,1,-0.016
0.008,0.988,-0.012
-0.008,0.98,-0.016
-0.012,1.004,-0.016
-0.008,0.988,-0.016
-0.004,0.992,-0.012
0.008,1.004,-0.016
0.004,1,-0.012
0.02,0.996,-0.012
0.02,0.996,-0.004
0.012,1,-0.008
0.008,1,-0.004
-0.012,1.008,-0.004
-0.02,0.996,-0.016
-0.008,1,-0.004
-0.008,0.996,-0.012
-0.012,1,-0.016
-0.016,0.996,-0.02
-0.004,0.992,-0.012
0.004,0.992,-0.023
-0.027,0.992,-0.043
-0.016,0.992,-0.035
-0.008,0.996,-0.031
-0.016,1.004,-0.031
-0.012,0.996,-0.016
-0.008,0.996,-0.012
0,0.996,-0.016
0,0.996,-0.012
0,0.992,-0.008
0,0.992,-0.012
-0.008,1.008,-0.023
0,0.996,-0.016
-0.012,0.992,-0.016
-0.027,0.992,-0.016
-0.047,1,-0.02
-0.02,0.992,-0.027
0.023,0.996,-0.02
0.027,0.996,-0.023
0.008,1.008,-0.02
0.008,0.996,-0.02
-0.023,0.988,-0.023
-0.023,0.977,-0.02
-0.012,0.992,-0.02
-0.012,0.996,-0.027
0.008,0.996,-0.016
0.016,0.992,-0.016
0.023,0.992,-0.016
0,1,-0.016
-0.012,0.996,-0.02
-0.016,1.004,-0.016
-0.016,0.996,-0.02
0,0.996,-0.023
0,0.996,-0.016
0.012,1.004,-0.012
0.012,0.996,-0.016
-0.008,0.992,-0.016
-0.016,0.996,-0.016
-0.016,0.988,-0.023
-0.012,0.992,-0.012
-0.016,0.988,-0.016
-0.012,0.988,-0.016
-0.004,0.996,-0.016
-0.004,0.992,-0.012
0.016,0.996,-0.012
0.016,0.992,-0.012
0.016,0.992,-0.012
0.012,1.004,-0.012
-0.004,1.004,-0.012
0.004,1.012,-0.016
-0.004,0.996,-0.012
-0.012,0.992,-0.012
-0.039,0.996,-0.012
-0.02,0.996,-0.016
0.016,0.996,-0.012
0.023,1,-0.016
0.023,0.988,-0.016
-0.004,0.996,-0.016
-0.02,0.996,-0.016
-0.012,0.98,-0.023
-0.012,1.004,-0.02
-0.008,0.996,-0.016
0.012,0.996,-0.012
0.008,1,-0.016
0.008,1.004,-0.016
0.016,1,-0.012
-0.004,0.992,-0.016
0.004,0.996,-0.012
0,0.988,-0.012
-0.004,1.004,-0.012
-0.012,1.016,-0.016
0.008,1.008,-0.004
-0.004,0.992,-0.012
-0.031,0.98,-0.023
-0.023,0.992,-0.02
-0.012,0.992,-0.016
0.016,0.984,-0.016
0.008,0.996,-0.012
0.004,1.004,-0.008
0.016,1.008,-0.004
0.012,0.988,-0.008
0.004,0.992,-0.008
-0.004,0.996,-0.008
-0.008,0.996,-0.008
-0.02,0.992,-0.012
0,1.008,-0.016
0.012,0.996,-0.012
-0.012,0.98,-0.012
-0.031,0.996,-0.016
0,1,-0.023
0.031,0.988,-0.02
0.055,0.996,-0.016
0.031,1,-0.016
0.004,0.996,-0.016
-0.023,1.004,-0.016
-0.031,0.988,-0.02
-0.016,0.996,-0.012
-0.012,1,-0.016
0,0.992,-0.016
0.02,0.992,-0.008
0.012,0.996,-0.012
0.004,0.996,-0.004
0.016,1,-0.004
0.012,1,-0.004
0.023,0.996,-0.004
0,0.996,0
-0.012,1,-0.004
-0.012,1.004,-0.012
-0.016,0.992,-0.012
0.004,1,-0.016
0,1,-0.012
0.004,0.984,-0.012
0,0.996,-0.016
-0.012,0.988,-0.023
-0.004,0.992,-0.016
0.008,0.988,-0.016
0.004,0.996,-0.016
0.012,0.996,-0.008
0.012,0.992,-0.012
0.023,0.996,-0.008
0.031,0.996,-0.008
0.023,0.996,-0.004
0.023,0.996,-0.012
0.023,0.992,-0.004
-0.004,1.004,-0.012
-0.039,0.996,-0.012
-0.051,1.004,-0.016
-0.023,0.996,-0.016
0.008,0.996,-0.016
0.02,0.988,-0.012
0.012,0.992,-0.012
0.004,0.984,-0.02
-0.012,1.004,-0.012
-0.012,1,-0.016
0.012,0.996,-0.012
0.012,0.988,-0.016
0.012,0.992,-0.016
0.012,0.996,-0.016
0.02,0.992,-0.016
0.023,1,-0.012
-0.004,1,-0.012
-0.012,0.996,-0.012
-0.023,0.992,-0.012
-0.027,0.996,-0.016
-0.004,0.996,-0.012
0.008,0.992,-0.016
0.008,0.992,-0.023
-0.004,0.992,-0.02
-0.012,0.992,-0.02
-0.012,0.988,-0.016
-0.012,0.996,-0.016
0.004,0.988,-0.016
0.016,0.992,-0.016
0.02,0.984,-0.016
0.02,1.012,-0.008
0.016,1,-0.016
0.023,1.004,-0.004
0.016,0.996,-0.016
0.023,0.988,-0.012
-0.004,0.988,-0.012
-0.043,0.992,-0.016
-0.023,0.996,-0.016
0.012,0.992,-0.012
0.027,0.996,-0.012
0.027,0.992,-0.012
0.023,0.996,-0.02
-0.004,0.988,-0.016
-0.012,0.992,-0.012
-0.012,0.992,-0.016
-0.008,0.996,-0.016
0.004,0.992,-0.016
0.012,0.996,-0.023
0.012,0.996,-0.02
0.008,0.996,-0.016
0.016,0.996,-0.023
0.008,0.996,-0.016
0.008,0.992,-0.012
-0.008,0.996,-0.012
-0.02,0.992,-0.016
-0.012,0.996,-0.012
-0.004,0.996,-0.023
0.008,0.992,-0.016
0.008,0.992,-0.016
0.004,0.984,-0.02
-0.012,0.992,-0.02
-0.004,0.988,-0.016
0.004,0.996,-0.012
0.012,0.992,-0.012
0.008,0.996,-0.008
0.023,0.996,-0.012
0.027,1.004,0
0.027,1.004,-0.004
0.035,0.992,-0.004
0.023,0.988,-0.008
-0.012,0.984,0
-0.043,1.012,-0.016
-0.012,1.004,-0.008
0.023,0.988,-0.008
0.031,0.996,-0.012
0.016,1.004,-0.008
-0.008,0.996,-0.016
-0.008,0.988,-0.016
-0.004,0.992,-0.012
0.004,0.984,-0.016
0.008,0.992,-0.008
0.008,0.988,-0.016
0.02,0.996,-0.012
0.023,1.016,-0.012
0.016,0.988,-0.012
0.004,0.984,-0.016
-0.012,1.008,-0.012
-0.012,0.992,-0.012
0,0.992,-0.016
0,0.992,-0.02
0.004,1.004,-0.016
0.004,0.996,-0.016
-0.008,0.992,-0.016
0.004,0.996,-0.02
0.02,0.988,-0.016
0.012,0.988,-0.016
0.016,0.992,-0.008
0.016,0.992,-0.008
0.023,0.996,-0.008
0.031,0.996,-0.012
0.023,1.004,-0.012
0.027,0.996,-0.008
0.023,0.996,-0.008
0.027,0.992,-0.008
-0.004,0.98,-0.008
-0.031,1.004,-0.008
-0.023,0.996,-0.02
0.02,0.992,-0.012
0.031,1.008,-0.016
0.031,1,0
0.016,1,-0.012
-0.004,1,-0.008
-0.012,0.988,-0.008
-0.012,0.988,-0.012
-0.016,1.004,-0.012
-0.016,0.992,-0.012
-0.016,0.992,-0.016
-0.004,0.996,0
-0.012,1,-0.004
-0.012,0.996,0
-0.012,1.012,-0.004
-0.016,0.996,0
-0.012,1,-0.004
-0.012,0.992,-0.008
-0.012,0.992,-0.012
-0.012,0.992,-0.012
0,0.984,-0.008
0,0.988,-0.016
-0.008,0.992,-0.012
0.004,0.992,-0.016
0.004,0.988,-0.012
0.016,0.992,-0.008
0.016,0.996,-0.008
0.02,0.988,-0.016
0.016,1.004,-0.012
0.031,1.004,-0.008
0.035,1.004,-0.02
0.031,1.004,-0.016
0,0.98,-0.012
-0.047,0.988,-0.016
-0.074,1.016,-0.023
-0.008,0.988,-0.02
0.063,0.984,-0.012
0.063,0.988,-0.016
0.047,0.988,-0.012
0.008,0.992,-0.016
-0.004,0.996,-0.02
-0.008,0.992,-0.023
0.012,0.984,-0.023
0.012,0.992,-0.016
0.023,1.004,-0.012
0.016,0.996,-0.02
0.012,0.98,-0.012
0.004,0.992,-0.016
0.004,0.992,-0.016
-0.012,0.988,-0.02
-0.008,0.965,-0.023
0,0.949,-0.027
-0.004,1.039,-0.023
-0.02,1,-0.035
-0.039,0.973,-0.051
-0.051,0.992,-0.027
-0.02,0.988,-0.02
0.023,0.977,-0.016
0.063,0.957,-0.012
0.059,0.992,-0.031
0.043,0.973,0.047
0.02,0.945,0.078
0.023,0.969,0.105
-0.004,1.047,0.117
-0.016,1.023,0.105
0.023,1,0.125
0.047,1.023,0.129
-0.004,1.051,0.148
0.004,0.996,0.133
0.008,0.961,0.129
-0.004,0.988,0.125
-0.012,0.98,0.109
-0.035,0.973,0.086
-0.066,0.965,0.109
-0.07,1.055,0.117
-0.102,1.055,0.16
-0.113,1.031,0.18
-0.078,1.027,0.168
-0.031,1.105,0.102
0.191,1.172,0.152
0.449,1.109,0.223
0.414,1.027,0.105
0.152,1.199,-0.082
0.152,1.262,-0.016
0.125,1.063,0.055
0.02,0.797,0.016
-0.086,0.762,-0.055
-0.086,0.75,-0.078
-0.102,0.738,-0.109
-0.113,0.707,-0.145
-0.098,0.59,-0.199
-0.215,0.695,-0.133
-0.203,0.883,-0.063
0.02,1.344,-0.094
-0.254,1.664,-0.273
-0.207,1.27,-0.258
0.066,1.246,-0.168
0.199,0.961,-0.289
0.324,0.949,-0.129
0.262,0.934,-0.043
0.195,0.969,-0.02
0.137,0.91,-0.039
0.141,0.895,-0.047
0.094,0.855,-0.07
-0.027,0.84,-0.043
-0.102,0.719,-0.02
-0.066,0.797,0.008
-0.047,0.91,0.027
-0.074,0.934,0
-0.039,0.984,-0.027
0.047,1.086,-0.004
-0.098,1.047,0.109
-0.191,1.016,0.07
0.168,1.238,0.051
0.414,1.25,-0.012
0.387,1.176,0.234
0.395,1.289,-0.004
0.277,1.387,-0.098
-0.016,1.305,-0.055
-0.031,0.953,-0.008
-0.012,0.613,0.012
0,0.621,0.016
0.043,0.625,-0.043
0.023,0.664,-0.055
-0.043,0.625,-0.082
-0.125,0.641,-0.133
-0.316,0.867,-0.086
0.02,1.031,-0.051
-0.035,1.914,-0.145
-0.637,1.305,-0.234
0.008,1.188,-0.336
0.535,1.336,-0.059
0.352,0.91,-0.16
0.066,0.898,-0.164
0.191,0.957,-0.059
0.223,0.98,0.02
0.16,0.867,-0.023
0.102,0.719,-0.027
-0.012,0.766,-0.023
-0.086,0.824,-0.027
-0.078,0.801,0.012
-0.105,0.793,0.043
-0.031,0.902,0.043
0.094,1.012,0
-0.031,1.063,0.074
-0.398,1.012,0.113
-0.113,1.297,0.09
0.25,1.445,-0.168
0.5,1.227,0.215
0.422,1.316,0.168
0.27,1.316,-0.09
0.07,1.387,-0.094
0.078,1.066,0.023
0.031,0.656,0.043
0.051,0.539,0.043
0.09,0.543,-0.008
0.109,0.613,-0.055
0.09,0.645,-0.129
-0.059,0.586,-0.113
-0.27,0.676,-0.219
-0.234,0.984,-0.07
-0.066,1.82,-0.059
-0.582,1.613,-0.219
-0.344,1.063,-0.383
0.5,1.559,-0.086
0.547,0.883,-0.102
0.23,0.93,-0.133
0.223,1.035,-0.039
0.266,0.977,-0.051
0.219,0.836,-0.09
0.105,0.75,-0.063
0.012,0.742,-0.051
-0.035,0.738,-0.023
-0.055,0.734,0.004
-0.109,0.805,0.035
-0.086,0.93,0
0.023,1.074,0.012
-0.059,1.035,0.063
-0.438,0.922,0.102
-0.316,1.039,0.129
0.289,1.266,-0.238
0.68,1.453,0.277
0.668,1.508,0.238
0.395,1.313,-0.137
0.02,1.453,-0.105
-0.047,1.137,0.035
-0.02,0.617,0.078
-0.012,0.563,0.008
0.035,0.484,-0.02
0.035,0.543,-0.07
-0.035,0.508,-0.078
-0.168,0.566,-0.168
-0.309,0.805,-0.141
0.016,1.141,0.004
-0.055,2.117,-0.113
-0.77,1.242,-0.227
0.047,1.102,-0.352
0.676,1.488,0.055
0.422,1.051,-0.078
0.082,0.848,-0.152
0.203,0.957,-0.039
0.258,1.016,0.004
0.184,0.91,-0.039
0.152,0.711,-0.051
0.027,0.707,-0.039
-0.059,0.707,-0.012
-0.137,0.727,0.012
-0.172,0.82,0.012
-0.121,0.961,-0.008
-0.008,1.012,-0.055
-0.168,1.051,-0.012
-0.418,0.938,0.016
0.023,1.246,0.148
0.355,1.363,-0.141
0.391,1.242,0.133
0.457,1.379,0.082
0.434,1.434,-0.039
0.082,1.344,-0.07
-0.098,1.035,-0.031
-0.012,0.559,0.02
0,0.539,0.027
0.059,0.531,-0.023
0.094,0.625,-0.051
0.07,0.602,-0.066
-0.043,0.563,-0.16
-0.266,0.797,-0.16
-0.191,1.094,-0.086
-0.023,1.887,0.008
-0.711,1.531,-0.031
-0.348,1.094,-0.352
0.582,1.613,-0.043
0.637,1.055,-0.039
0.176,0.859,-0.223
0.184,0.938,-0.07
0.223,0.934,-0.027
0.102,0.848,-0.051
0.059,0.754,-0.039
-0.004,0.75,-0.035
-0.09,0.777,-0.063
-0.109,0.773,-0.008
-0.16,0.82,0.008
-0.09,0.969,-0.012
0.063,1.023,-0.027
-0.07,1.055,0.055
-0.379,1.051,0.043
-0.039,1.254,-0.016
0.363,1.301,-0.148
0.484,1.285,0.313
0.434,1.355,0.02
0.34,1.418,-0.098
0.051,1.289,-0.105
-0.047,0.973,-0.004
0.043,0.516,0.012
0.063,0.5,-0.008
0.094,0.527,-0.035
0.098,0.652,-0.074
0.004,0.633,-0.09
-0.137,0.586,-0.195
-0.348,0.906,-0.188
-0.055,1.063,-0.012
-0.082,2.035,-0.082
-0.699,1.258,-0.242
0.055,1.355,-0.273
0.508,1.324,-0.059
0.422,0.809,-0.074
0.223,0.914,-0.105
0.246,0.992,-0.027
0.191,0.926,-0.066
0.078,0.852,-0.066
0.051,0.785,-0.031
-0.055,0.797,-0.035
-0.133,0.805,0.012
-0.145,0.785,0.016
-0.191,0.793,0.023
-0.059,0.977,-0.016
0.051,1.105,-0.023
-0.258,0.977,0.039
-0.234,1.059,0.074
0.25,1.348,-0.16
0.496,1.203,0.082
0.453,1.305,0.254
0.434,1.34,-0.031
0.195,1.418,-0.109
-0.043,1.16,-0.043
-0.008,0.719,0.027
-0.008,0.574,0.035
0.039,0.516,-0.02
0.098,0.594,-0.055
0.086,0.691,-0.063
-0.086,0.617,-0.102
-0.215,0.676,-0.199
-0.246,0.992,-0.121
0.152,1.848,-0.051
-0.5,1.504,-0.156
0.043,1.328,-0.395
0.445,1.348,-0.031
0.316,0.762,-0.148
0.098,0.957,-0.129
0.25,0.996,-0.035
0.27,0.918,-0.031
0.125,0.867,-0.059
0.086,0.77,-0.063
0.004,0.73,-0.047
-0.082,0.754,-0.027
-0.145,0.734,0.031
-0.129,0.914,0.02
-0.063,1.02,-0.047
-0.027,1.078,-0.023
-0.363,0.945,0.102
-0.176,1.098,0.059
0.313,1.305,-0.145
0.461,1.141,0.117
0.461,1.301,0.191
0.484,1.461,-0.027
0.219,1.43,-0.094
-0.039,1.121,-0.047
-0.047,0.668,-0.023
-0.039,0.586,0.016
0.043,0.535,-0.027
0.105,0.617,-0.055
0.113,0.602,-0.051
-0.031,0.523,-0.152
-0.227,0.727,-0.211
-0.168,1.012,0
0.027,1.832,-0.02
-0.699,1.523,-0.117
-0.262,1.172,-0.461
0.609,1.734,-0.02
0.531,0.863,-0.082
0.125,0.852,-0.188
0.164,1.035,-0.055
0.273,0.953,-0.023
0.141,0.828,-0.066
0.102,0.734,-0.043
-0.016,0.773,-0.023
-0.129,0.809,-0.031
-0.184,0.762,-0.02
-0.176,0.785,0.047
-0.09,0.988,-0.031
0.07,1.047,-0.008
-0.156,0.977,0.086
-0.355,1.027,0.078
0.211,1.316,-0.109
0.465,1.309,0.039
0.469,1.359,0.258
0.449,1.367,-0.035
0.223,1.469,-0.109
-0.012,1.227,-0.082
0,0.777,0.008
0.027,0.504,0.012
0.074,0.488,-0.02
0.113,0.582,-0.047
0.137,0.656,-0.105
-0.035,0.594,-0.121
-0.164,0.613,-0.18
-0.242,0.91,-0.133
0.055,1.492,-0.023
-0.414,1.902,-0.164
-0.535,1.215,-0.324
0.406,1.734,-0.07
0.559,0.82,-0.172
0.203,0.844,-0.18
0.16,1,-0.055
0.234,1.012,0.012
0.207,0.844,-0.035
0.168,0.719,-0.016
0.074,0.742,0.004
-0.059,0.797,0.012
-0.137,0.781,0.016
-0.188,0.781,0.074
-0.117,0.926,0.02
0.043,0.984,-0.031
-0.086,1.063,0.008
-0.473,1,0.023
0.008,1.316,0.129
0.336,1.297,-0.156
0.434,1.094,0.039
0.402,1.273,0.227
0.402,1.43,-0.051
0.227,1.445,-0.078
0.012,1.078,-0.023
-0.031,0.609,0.004
-0.051,0.539,0.059
0.031,0.492,-0.004
0.07,0.602,-0.043
0.074,0.668,-0.09
-0.063,0.598,-0.113
-0.363,0.84,-0.129
-0.113,1.004,-0.008
-0.047,2.086,-0.027
-0.789,1.301,-0.141
0.047,1.223,-0.398
0.684,1.504,0.008
0.461,0.918,-0.109
0.109,0.883,-0.16
0.18,0.926,-0.035
0.262,0.867,-0.027
0.133,0.855,-0.066
0.074,0.715,-0.031
-0.074,0.652,-0.023
-0.137,0.703,-0.008
-0.168,0.801,0.043
-0.129,0.973,0.016
-0.023,1.031,-0.066
-0.004,1.098,-0.012
-0.344,0.961,0.113
-0.184,1.156,0.035
0.352,1.316,-0.199
0.492,1.133,0.176
0.453,1.363,0.152
0.473,1.516,-0.051
0.164,1.352,-0.098
-0.09,1.031,-0.066
-0.047,0.535,-0.02
-0.047,0.531,0.027
0.039,0.52,-0.027
0.098,0.652,-0.066
0.102,0.637,-0.082
-0.07,0.535,-0.168
-0.258,0.832,-0.207
-0.078,1.086,-0.012
-0.074,2.02,-0.055
-0.793,1.301,-0.195
0.082,1.262,-0.383
0.605,1.473,0.004
0.449,0.863,-0.164
0.148,0.977,-0.113
0.238,1.012,-0.031
0.266,0.875,-0.023
0.18,0.785,-0.066
0.121,0.715,-0.047
-0.004,0.742,-0.027
-0.102,0.77,-0.035
-0.152,0.75,-0.012
-0.18,0.832,0.012
-0.121,0.973,-0.023
0.07,1.059,-0.035
-0.121,1.039,0.082
-0.43,1.027,0.043
0.004,1.273,-0.016
0.387,1.266,-0.082
0.551,1.34,0.297
0.512,1.348,0.051
0.352,1.371,-0.09
0.082,1.297,-0.066
0.051,0.941,0.02
0.078,0.551,-0.004
0.031,0.559,-0.012
0.059,0.57,-0.043
0.082,0.648,-0.063
-0.047,0.551,-0.086
-0.188,0.555,-0.16
-0.273,0.836,-0.215
0.07,1.25,0.078
-0.234,2.105,-0.152
-0.734,1.004,-0.273
0.371,1.484,-0.219
0.703,1.328,0.055
0.234,0.863,-0.223
0.031,0.93,-0.121
0.176,0.949,0
0.234,0.938,-0.016
0.188,0.848,-0.039
0.176,0.688,-0.031
0.059,0.703,-0.051
-0.051,0.688,-0.008
-0.164,0.781,0.027
-0.148,0.949,-0.016
-0.016,0.992,-0.039
0.031,1.086,-0.09
-0.246,1,0.004
-0.289,1.117,0.02
0.297,1.348,-0.047
0.375,1.164,-0.008
0.289,1.25,0.219
0.477,1.477,0.031
0.34,1.391,-0.125
0.055,1.156,-0.059
-0.027,0.809,0.008
0.016,0.566,0.02
0.066,0.555,-0.012
0.098,0.578,-0.035
0.098,0.668,-0.078
0.008,0.582,-0.121
-0.203,0.648,-0.18
-0.301,0.898,-0.102
0.031,1.375,0
-0.305,1.953,-0.086
-0.676,0.988,-0.219
0.426,1.594,-0.227
0.676,1.355,-0.008
0.199,0.793,-0.258
0.082,0.84,-0.109
0.238,0.926,-0.008
0.27,0.941,-0.027
0.188,0.773,-0.066
0.137,0.672,-0.051
-0.004,0.742,-0.047
-0.109,0.777,-0.02
-0.133,0.805,0.031
-0.109,0.953,0.031
-0.004,1.004,-0.051
0.07,1.055,-0.051
-0.266,0.953,0.074
-0.285,1.121,0.039
0.266,1.406,-0.066
0.363,1.168,0.055
0.309,1.219,0.195
0.426,1.406,0
0.305,1.461,-0.109
0.035,1.227,-0.039
-0.02,0.777,0.023
-0.016,0.559,0.051
0.043,0.535,-0.016
0.105,0.602,-0.023
0.105,0.695,-0.047
-0.043,0.563,-0.109
-0.219,0.66,-0.18
-0.27,0.953,-0.18
0.16,1.52,0.047
-0.355,1.832,-0.176
-0.363,0.949,-0.328
0.375,1.711,-0.117
0.508,1.027,-0.039
0.18,0.832,-0.219
0.16,1.027,-0.086
0.242,1.059,-0.027
0.172,0.883,-0.094
0.117,0.746,-0.047
0.059,0.707,-0.039
-0.039,0.746,-0.027
-0.086,0.742,0.027
-0.086,0.813,0.031
-0.07,0.949,-0.012
-0.051,1.004,-0.023
-0.039,1,-0.023
-0.375,0.934,0.016
0.008,1.207,0.082
0.344,1.371,-0.129
0.512,1.152,0.129
0.563,1.371,0.098
0.438,1.461,-0.059
0.063,1.348,-0.09
-0.039,1.043,-0.039
0.016,0.613,0
0.012,0.566,0
0.043,0.539,-0.027
0.059,0.605,-0.035
0.047,0.59,-0.074
-0.09,0.492,-0.113
-0.234,0.688,-0.199
-0.195,1.039,-0.063
0.105,1.973,0.137
-0.594,1.578,-0.121
-0.422,0.973,-0.352
0.559,1.719,-0.055
0.691,1.191,-0.02
0.129,0.801,-0.238
0.094,0.805,-0.102
0.207,0.926,-0.012
0.121,0.895,-0.051
0.09,0.773,-0.059
0.016,0.77,-0.051
-0.082,0.816,-0.055
-0.121,0.816,-0.047
-0.145,0.801,0.012
-0.145,0.93,0
-0.023,0.969,-0.043
0.016,1.074,0.027
-0.332,0.957,0.063
-0.109,1.18,0.043
0.328,1.305,-0.141
0.367,1.223,0.168
0.383,1.305,0.121
0.383,1.402,-0.098
0.074,1.395,-0.109
-0.043,1.09,-0.016
-0.051,0.652,0.023
-0.063,0.59,0.043
0.023,0.523,-0.023
0.086,0.594,-0.047
0.07,0.617,-0.09
-0.117,0.566,-0.188
-0.297,0.781,-0.16
-0.109,1.031,-0.063
0.004,2.016,-0.059
-0.574,1.371,-0.238
-0.039,1.25,-0.336
0.508,1.406,-0.043
0.438,0.801,-0.145
0.16,0.941,-0.148
0.238,0.98,-0.035
0.27,0.934,-0.031
0.137,0.891,-0.055
0.078,0.762,-0.047
-0.031,0.754,-0.035
-0.094,0.719,-0.023
-0.121,0.695,-0.004
-0.133,0.844,0.039
-0.145,1,-0.063
0.023,1.07,-0.039
-0.098,1.063,0.07
-0.301,1.008,0.031
0.109,1.293,-0.023
0.391,1.199,-0.043
0.359,1.266,0.176
0.379,1.395,0.012
0.34,1.449,-0.082
0.113,1.254,-0.07
0.004,0.895,-0.008
-0.008,0.605,0.031
0.051,0.559,0.016
0.063,0.57,-0.039
0.082,0.66,-0.051
-0.012,0.621,-0.094
-0.141,0.621,-0.195
-0.199,0.914,-0.109
0.207,1.332,0.027
-0.254,1.922,-0.16
-0.871,0.863,-0.234
0.246,1.316,-0.309
0.855,1.48,0.078
0.332,0.797,-0.18
0.039,0.828,-0.156
0.188,0.992,-0.008
0.199,0.988,-0.051
0.082,0.871,-0.066
0.035,0.715,-0.043
-0.078,0.738,-0.027
-0.141,0.813,0.004
-0.148,0.789,0.004
-0.145,0.91,-0.004
-0.051,0.977,-0.051
-0.016,1.086,-0.023
-0.238,0.984,0.039
-0.145,1.133,0.09
0.258,1.246,-0.082
0.328,1.199,0.156
0.375,1.332,0.109
0.344,1.418,-0.027
0.047,1.379,-0.051
-0.051,1.094,0.012
0.039,0.719,0.043
0.051,0.621,0.043
0.043,0.641,0.016
0.066,0.641,-0.008
-0.004,0.594,-0.063
-0.156,0.707,-0.168
-0.18,0.75,0.02
0.086,0.965,-0.043
-0.035,2.02,-0.094
-0.547,1.176,-0.129
0.074,1.348,-0.102
0.285,1.324,0.129
0.203,1.02,-0.063
0.035,0.891,-0.004
0.195,0.969,0.035
0.297,1.098,-0.012
0.156,0.941,-0.102
0,0.859,-0.086
-0.098,0.777,-0.063
-0.133,0.73,-0.004
-0.086,0.699,0.043
-0.094,0.77,0.07
-0.105,0.945,0.098
-0.059,0.914,0.066
0.008,1.027,-0.066
-0.098,1.098,-0.023
-0.168,1.145,-0.008
0.063,1.332,0.281
0.313,1.434,0.324
-0.004,1.234,0.258
0.203,1.246,0.223
0.223,1.293,0.18
0.004,1.223,0.098
-0.129,0.984,0.102
-0.043,0.84,0.129
0.016,0.91,0.133
0.047,0.898,0.129
0.113,0.789,0.113
0.254,0.723,0.16
0.184,0.734,0.105
0.039,0.746,0.18
0.004,0.898,0.027
0.086,1.238,0.047
-0.145,1.461,-0.016
-0.578,1.074,-0.105
0.059,1.121,-0.141
0.484,1.625,0.117
0.324,0.918,-0.145
0.172,0.73,-0.098
0.289,0.953,0.051
0.184,1.086,0.008
0.078,1.023,-0.043
-0.035,0.875,-0.043
-0.102,0.82,-0.008
0.063,0.742,0.066
0.199,0.734,0.145
0.215,0.789,0.129
0.102,0.848,0.145
0.051,0.914,0.102
0.215,1.074,0.008
0.184,1.145,0.211
-0.203,1.094,0.145
-0.004,1.379,0.129
0.281,1.266,0.219
0.426,1.07,0.191
0.43,1.074,0.086
0.301,1.313,-0.008
0.078,1.508,0.051
-0.023,1,0.059
-0.133,0.758,0.051
-0.137,0.715,0.055
0.051,0.625,0.043
0.211,0.609,0.047
0.219,0.617,0.043
0.074,0.539,-0.031
-0.176,0.758,-0.215
-0.074,0.996,0.02
-0.066,2.246,0
-0.699,1.238,-0.137
-0.078,0.973,-0.363
0.602,1.504,0.012
0.445,0.902,-0.105
0.078,0.836,-0.16
0.172,0.984,-0.027
0.238,0.988,-0.027
0.145,0.914,-0.074
0.086,0.738,-0.055
0.012,0.73,-0.02
-0.051,0.762,-0.004
-0.07,0.695,0.027
-0.086,0.867,0.031
-0.023,0.965,-0.059
0.074,1.066,-0.039
-0.309,1.008,0.105
-0.367,1.051,-0.023
0.227,1.445,-0.004
0.504,1.16,0.082
0.477,1.266,0.289
0.477,1.582,-0.051
0.148,1.609,-0.063
-0.078,1.215,-0.023
-0.098,0.656,0.043
-0.055,0.469,0.074
0.027,0.422,0.008
0.125,0.559,-0.031
0.148,0.629,-0.031
-0.039,0.598,-0.145
-0.297,0.844,-0.137
-0.055,1.02,-0.07
0.063,2.18,-0.07
-0.742,1.316,-0.141
-0.125,0.949,-0.484
0.598,1.492,0.07
0.52,1.117,-0.066
0.051,0.918,-0.191
0.125,0.91,-0.055
0.293,0.902,-0.004
0.191,0.867,-0.047
0.07,0.703,-0.051
-0.055,0.703,-0.066
-0.152,0.77,0
-0.215,0.797,0.008
-0.211,0.957,0.031
-0.039,1.016,-0.043
0.008,1.07,0.016
-0.422,0.84,0.082
-0.023,1.16,0.07
0.461,1.305,-0.148
0.504,1.152,0.18
0.414,1.402,0.141
0.371,1.523,-0.082
0.023,1.523,-0.113
-0.137,1.012,-0.082
-0.102,0.547,0.023
-0.074,0.496,0.09
0.051,0.406,-0.031
0.094,0.551,-0.027
0.035,0.559,-0.047
-0.129,0.629,-0.176
-0.258,0.965,-0.188
0.121,1.367,0.055
-0.289,2.117,-0.188
-0.676,1.102,-0.309
0.266,1.488,-0.191
0.539,0.973,-0.039
0.27,0.871,-0.199
0.172,1,-0.102
0.234,0.996,-0.023
0.16,0.813,-0.094
0.059,0.793,-0.066
0.016,0.719,-0.031
-0.039,0.723,-0.02
-0.078,0.777,0
-0.137,0.801,0.012
-0.074,0.973,-0.027
-0.008,1.023,-0.039
-0.246,0.973,0.098
-0.449,1.047,0.023
0.211,1.309,-0.078
0.602,1.168,-0.051
0.563,1.32,0.258
0.543,1.531,-0.004
0.266,1.559,-0.094
-0.059,1.191,-0.098
-0.055,0.727,-0.051
-0.027,0.523,0.027
0.02,0.523,-0.004
0.031,0.57,-0.039
0.055,0.633,-0.066
-0.02,0.555,-0.105
-0.172,0.633,-0.219
-0.293,0.922,-0.113
0.133,1.438,0.082
-0.477,2.043,-0.164
-0.691,0.91,-0.328
0.457,1.621,-0.184
0.746,1.316,0.035
0.23,0.816,-0.234
0.082,0.918,-0.109
0.242,1.02,-0.02
0.199,0.914,-0.047
0.109,0.75,-0.063
0.031,0.68,-0.055
-0.059,0.684,-0.039
-0.121,0.758,0.008
-0.164,0.824,0.039
-0.129,0.898,-0.012
0.004,0.906,-0.047
-0.012,1.055,0.016
-0.352,1.031,0.031
0.012,1.355,0.004
0.234,1.305,-0.125
0.418,1.137,0.168
0.449,1.348,0.094
0.367,1.516,-0.113
0.016,1.418,-0.086
-0.066,1.023,-0.02
-0.02,0.586,0.027
0.02,0.539,0.027
0.102,0.488,-0.035
0.125,0.594,-0.035
0.078,0.617,-0.078
-0.094,0.574,-0.125
-0.266,0.797,-0.16
-0.008,1.004,-0.059
-0.094,2.152,-0.074
-0.844,1.277,-0.199
-0.016,1.199,-0.387
0.602,1.438,0.004
0.43,0.93,-0.113
0.086,0.871,-0.191
0.184,0.969,-0.055
0.246,0.934,-0.047
0.113,0.84,-0.086
0.055,0.656,-0.074
-0.066,0.723,-0.047
-0.141,0.785,-0.039
-0.188,0.801,-0.012
-0.207,0.891,0.008
-0.02,0.938,-0.039
0.082,1.066,0.012
-0.391,0.945,0.109
-0.121,1.246,-0.094
0.43,1.391,-0.23
0.531,1.121,0.238
0.516,1.332,0.098
0.508,1.457,-0.137
0.09,1.316,-0.117
-0.145,0.988,-0.078
-0.105,0.566,-0.02
-0.051,0.492,0.016
0.047,0.5,-0.047
0.125,0.617,-0.063
0.078,0.633,-0.098
-0.145,0.586,-0.172
-0.332,0.93,-0.195
0.121,1.109,0.012
-0.16,2.297,-0.184
-0.949,0.957,-0.207
0.215,1.293,-0.391
0.77,1.496,0.082
0.367,0.816,-0.188
0.055,0.82,-0.172
0.195,0.934,-0.023
0.262,0.934,-0.023
0.16,0.848,-0.063
0.098,0.715,-0.047
-0.027,0.797,-0.031
-0.164,0.805,-0.016
-0.258,0.75,-0.023
-0.254,0.871,-0.012
0.039,1.012,-0.047
0.035,1.066,0.035
-0.422,0.941,-0.012
0.105,1.305,-0.09
0.426,1.246,0.047
0.395,1.184,0.188
0.418,1.402,0
0.27,1.559,-0.102
-0.027,1.328,-0.059
-0.063,0.855,0
0.008,0.496,0.039
0.004,0.496,0.039
0.113,0.539,-0.043
0.129,0.715,-0.047
0.027,0.625,-0.102
-0.211,0.641,-0.191
-0.273,0.973,-0.18
0.215,1.574,0.105
-0.43,1.832,-0.168
-0.59,0.875,-0.402
0.426,1.688,-0.113
0.621,1.109,-0.023
0.172,0.766,-0.203
0.078,0.949,-0.078
0.258,0.941,-0.023
0.16,0.902,-0.078
0.098,0.777,-0.039
0.016,0.734,-0.027
-0.066,0.773,-0.031
-0.145,0.746,-0.008
-0.172,0.785,0.012
-0.129,0.977,-0.039
0.016,0.98,-0.043
-0.199,1.016,0.086
-0.434,1.059,0.004
0.277,1.371,-0.121
0.555,1.156,0.074
0.496,1.25,0.203
0.504,1.578,-0.066
0.164,1.563,-0.125
-0.094,1.164,-0.105
-0.121,0.688,-0.039
-0.086,0.512,0.039
0.012,0.418,-0.043
0.098,0.504,-0.051
0.113,0.563,-0.074
-0.047,0.543,-0.156
-0.219,0.715,-0.223
-0.25,1.18,-0.254
-0.035,2.082,0.051
-0.777,1.387,-0.051
-0.281,0.859,-0.48
0.855,1.879,0.059
0.762,1.215,-0.039
0.129,0.691,-0.176
0.199,0.754,0.004
0.316,1.031,0.031
0.172,1.117,-0.063
0.168,0.805,-0.043
-0.004,0.758,-0.035
-0.039,0.688,-0.031
-0.109,0.711,0
-0.199,0.781,0.035
-0.207,0.836,-0.004
-0.148,0.992,0.055
-0.016,1.059,0.031
-0.141,1.047,0.051
-0.395,0.973,0.063
0.074,1.184,-0.016
0.543,1.367,-0.008
0.609,1.348,0.363
0.438,1.297,0.07
0.195,1.398,-0.117
-0.031,1.426,-0.035
-0.016,0.914,0.031
-0.035,0.613,0.09
-0.02,0.488,0.055
0.109,0.539,0
0.176,0.664,-0.035
0.043,0.645,-0.117
-0.234,0.719,-0.152
-0.164,0.797,-0.078
0.07,1.527,-0.051
-0.465,1.734,-0.156
-0.496,1.031,-0.309
0.402,1.535,-0.055
0.438,1.035,-0.137
0.063,0.844,-0.23
0.105,0.922,-0.094
0.309,0.973,0
0.227,0.91,-0.039
0.137,0.73,-0.035
0.023,0.711,-0.027
-0.094,0.734,0.016
-0.156,0.797,0.043
-0.117,0.898,0.063
0.02,0.988,0.023
-0.016,1.039,0.004
-0.453,0.91,0.129
-0.363,1.141,0.031
0.324,1.48,-0.148
0.617,1.172,0.223
0.465,1.301,0.188
0.332,1.445,-0.133
0.023,1.484,-0.117
-0.047,1.023,-0.016
-0.07,0.566,0.02
-0.059,0.484,0.066
0.078,0.438,-0.031
0.133,0.598,-0.051
0.016,0.617,-0.055
-0.188,0.609,-0.223
-0.332,0.988,-0.211
0.199,1.211,0.133
-0.246,2.109,-0.211
-0.641,0.953,-0.266
0.328,1.508,-0.164
0.566,1.215,-0.008
0.238,0.82,-0.207
0.125,0.797,-0.102
0.184,0.953,-0.012
0.094,0.953,-0.039
0.152,0.789,-0.035
0.051,0.633,-0.031
-0.066,0.594,-0.008
-0.137,0.707,0.02
-0.117,0.91,0.031
-0.004,1.027,-0.043
0.027,1.074,-0.047
-0.375,0.961,0.102
-0.414,1.102,0.004
0.32,1.418,-0.145
0.57,1.133,0.145
0.418,1.379,0.176
0.359,1.574,-0.082
0.113,1.508,-0.102
-0.07,1.023,-0.082
-0.063,0.527,-0.008
-0.059,0.473,0.074
0.051,0.402,-0.012
0.082,0.578,-0.039
0.023,0.609,-0.082
-0.156,0.613,-0.18
-0.316,0.887,-0.137
0.129,1.25,0.09
-0.254,2.184,-0.176
-0.551,0.914,-0.266
0.477,1.656,-0.102
0.566,1.125,0
0.176,0.855,-0.215
0.066,0.91,-0.109
0.234,0.977,-0.004
0.152,0.949,-0.008
0.141,0.766,-0.02
0.023,0.66,-0.02
-0.105,0.695,-0.035
-0.168,0.762,-0.012
-0.203,0.824,0.063
-0.016,0.918,-0.004
0.156,1.043,0
-0.234,0.961,0.027
-0.309,1.109,-0.066
0.328,1.516,-0.156
0.504,1.145,0.074
0.313,1.25,0.184
0.332,1.563,-0.063
0.172,1.449,-0.129
-0.023,1.063,-0.082
-0.039,0.652,-0.039
-0.063,0.535,0.059
-0.008,0.441,-0.031
0.07,0.563,-0.059
0.066,0.664,-0.094
-0.074,0.578,-0.102
-0.289,0.719,-0.219
-0.094,0.988,-0.055
0.008,2.137,-0.039
-0.738,1.434,-0.148
-0.234,1.113,-0.426
0.598,1.586,0.016
0.523,0.973,-0.094
0.141,0.883,-0.176
0.191,0.891,-0.066
0.258,0.934,-0.023
0.145,0.848,-0.059
0.141,0.68,-0.039
-0.004,0.727,-0.035
-0.133,0.766,-0.012
-0.223,0.746,-0.004
-0.219,0.879,0.023
-0.102,1.004,-0.059
0.047,1.129,-0.039
-0.363,0.953,0.078
-0.203,1.137,0.012
0.457,1.332,-0.164
0.504,1.191,0.227
0.434,1.414,0.063
0.383,1.527,-0.129
0.063,1.352,-0.098
-0.078,0.969,-0.051
-0.074,0.508,0.039
-0.059,0.496,0.023
0.047,0.445,-0.043
0.094,0.613,-0.051
0.078,0.648,-0.129
-0.164,0.703,-0.164
-0.273,0.902,-0.137
0.129,1.254,0.004
-0.344,2.137,-0.066
-0.516,0.867,-0.23
0.492,1.699,-0.137
0.582,1.082,-0.082
0.078,0.777,-0.195
0.051,0.973,-0.086
0.258,1.035,0.027
0.246,0.93,-0.031
0.223,0.766,-0.035
0.086,0.719,-0.031
-0.031,0.695,-0.055
-0.125,0.684,0
-0.207,0.789,0.039
-0.152,0.969,-0.055
-0.008,1.035,-0.016
-0.18,1.105,0.066
-0.426,0.996,-0.023
0.332,1.355,-0.141
0.613,1.199,0.133
0.445,1.258,0.297
0.375,1.453,-0.063
0.109,1.613,-0.152
-0.145,1.242,-0.074
-0.156,0.707,-0.039
-0.109,0.555,0.098
-0.004,0.441,0.059
0.152,0.512,-0.035
0.184,0.656,-0.055
0.051,0.563,-0.109
-0.281,0.719,-0.172
-0.313,1.051,-0.109
0.09,1.832,0.016
-0.516,1.672,-0.18
-0.313,0.98,-0.402
0.59,1.492,0
0.555,1.074,-0.063
0.145,0.922,-0.223
0.113,0.965,-0.09
0.18,0.98,-0.027
0.09,0.871,-0.059
0.09,0.727,-0.035
0.043,0.664,-0.035
-0.004,0.711,0.004
-0.121,0.734,0.035
-0.203,0.871,0.004
-0.016,0.98,0
0.02,1.117,-0.008
-0.457,0.906,0.059
-0.172,1.188,-0.016
0.465,1.367,-0.227
0.512,1.137,0.301
0.508,1.469,0.094
0.445,1.543,-0.141
0.051,1.367,-0.105
-0.121,0.922,-0.063
-0.102,0.477,0.02
-0.055,0.449,0.027
0.059,0.434,-0.047
0.145,0.57,-0.078
0.035,0.598,-0.098
-0.188,0.645,-0.234
-0.27,1,-0.172
0.109,1.605,0.02
-0.449,1.852,-0.191
-0.563,0.895,-0.359
0.555,1.625,-0.105
0.648,1.242,-0.008
0.16,0.859,-0.191
0.102,0.906,-0.102
0.219,0.945,-0.004
0.148,0.914,-0.047
0.129,0.781,-0.043
0.043,0.719,-0.039
-0.043,0.672,-0.047
-0.148,0.703,-0.012
-0.176,0.777,0.012
-0.074,0.945,-0.063
0.055,1.055,-0.059
-0.289,1.008,0.039
-0.313,1.07,-0.059
0.27,1.422,-0.188
0.453,1.156,0.121
0.426,1.371,0.156
0.438,1.586,-0.07
0.117,1.414,-0.109
-0.133,1.09,-0.086
-0.059,0.621,-0.004
-0.023,0.5,0.07
0.039,0.457,-0.008
0.078,0.555,-0.031
0.082,0.633,-0.066
-0.07,0.57,-0.109
-0.301,0.859,-0.195
0.039,1.016,-0.012
-0.074,2.273,-0.109
-0.844,1.184,-0.211
0.156,1.207,-0.359
0.594,1.414,0.02
0.43,0.883,-0.137
0.098,0.953,-0.117
0.207,1,-0.027
0.238,0.926,-0.043
0.109,0.863,-0.051
0.078,0.711,-0.051
-0.059,0.695,-0.059
-0.145,0.762,-0.031
-0.195,0.766,0.012
-0.152,0.895,-0.008
0.043,1.008,-0.035
-0.043,1.086,0.023
-0.492,0.945,0.016
-0.02,1.309,-0.066
0.449,1.27,-0.07
0.402,1.207,0.207
0.363,1.508,0.059
0.383,1.492,-0.121
0.066,1.242,-0.086
-0.047,0.906,-0.043
0.051,0.535,0.035
0.066,0.473,0.031
0.09,0.5,-0.051
0.09,0.645,-0.07
-0.035,0.648,-0.125
-0.273,0.711,-0.176
-0.215,0.902,-0.117
0.133,1.445,0.027
-0.363,1.766,-0.176
-0.859,0.965,-0.277
0.383,1.438,-0.203
0.797,1.426,0.125
0.293,0.84,-0.215
0.043,0.863,-0.133
0.156,0.977,0
0.164,0.945,-0.035
0.098,0.852,-0.059
0.059,0.703,-0.051
-0.039,0.746,-0.035
-0.121,0.805,-0.008
-0.188,0.816,0.004
-0.195,0.852,-0.027
-0.102,0.91,-0.063
-0.035,1.023,-0.047
-0.277,0.996,-0.023
-0.059,1.23,0.051
0.324,1.371,-0.02
0.25,1.152,0.109
0.305,1.289,0.164
0.367,1.324,0.004
0.074,1.293,-0.035
-0.102,1.078,-0.012
0.012,0.691,0.039
0.055,0.641,0.074
0.031,0.605,0.043
0.035,0.648,-0.012
-0.043,0.668,-0.125
-0.305,0.82,-0.012
-0.238,0.777,-0.066
0.102,0.961,-0.055
-0.102,2.07,-0.133
-0.648,1.07,-0.063
-0.078,1.07,-0.086
0.391,1.484,0.223
0.309,1.25,0
0,0.844,-0.012
0.066,0.898,0.133
0.184,1.168,0.016
0.133,1.016,-0.051
0.035,0.844,-0.086
-0.059,0.781,-0.082
-0.094,0.723,0.008
0.004,0.707,0.094
0.039,0.789,0.102
-0.035,0.887,0.109
-0.086,0.953,0.039
-0.078,1.125,-0.109
-0.344,1.117,0.008
-0.27,1.16,0.262
0.371,1.363,0.328
0.406,1.152,0.148
0.066,1.234,0.246
0.207,1.367,0.234
0.121,1.277,0.195
-0.059,1.02,0.02
